workerid,proliferate.condition,age,comments,correct,education_level,enjoyment,gender,internal_node_id,key_press,native_language,response,rt,solution,stimulus,test_part,time_elapsed,total_score,trial_index,trial_type,understanding,experiment_id,participant_id,error
94,condition1,,,,,,,0.0-0.0,32,,,465345.4199999105,,"<p>University of California, Irvine Language Processing Group</p><p id=""legal"">By answering the following questions, you are participating in a study being performed by cognitive scientists in the University of California, Irvine Department of Language Science. If you have questions about this research, please contact Richard Futrell at rfutrell@uci.edu or Ryan Lee, at leerk3@uci.edu. You must be at least 18 years old to participate. Your participation in this research is voluntary. You may decline to answer any or all of the following questions. You may decline further participation, at any time, without adverse consequences. Your anonymity is assured; the researchers who have requested your participation will not receive any personal information about you.</p><p>Press spacebar to continue.</p>",,465741,,0,html-keyboard-response,,f1a4dc76-2a00-47fe-8d39-6f64085874d4,15227e1e-658e-4861-bc2d-e2a44eddba0d,
94,condition1,,,,,,,0.0-1.0,32,,,2262.5300001818687,,Welcome to the experiment. Press spacebar to begin.,,468290,,1,html-keyboard-response,,f1a4dc76-2a00-47fe-8d39-6f64085874d4,15227e1e-658e-4861-bc2d-e2a44eddba0d,
94,condition1,,,,,,,0.0-2.0,32,,,54182.99999996088,,"<p>A five-word sequence taken from a sentence will be given to you in random order.</p><p>Your task is to rearrange the words to match the original order from which they came.</p><p>However, you will not be given the original sentence.</p><p>For example:</p><video width='852' height='480' controls><source src='first_example_3.mp4' type='video/mp4'></video><p>Press spacebar to continue with the instructions.</p>",,522673,,2,html-keyboard-response,,f1a4dc76-2a00-47fe-8d39-6f64085874d4,15227e1e-658e-4861-bc2d-e2a44eddba0d,
94,condition1,,,,,,,0.0-3.0,32,,,59245.819999836385,,"<p>Note two things.</p><p>1. The five words may have been taken from any point within a sentence.</p><video width='852' height='480' controls><source src='note1_example_(quicker).mp4' type='video/mp4'></video><p>2. If you encounter multiple possibilities like this, just pick one order.</p><video width='852' height='480' controls><source src='note2_example_final.mp4' type='video/mp4'></video><p>You will be given the option to re-randomize the words and clear your input.</p><p>Press spacebar to continue.</p>",,581958,,3,html-keyboard-response,,f1a4dc76-2a00-47fe-8d39-6f64085874d4,15227e1e-658e-4861-bc2d-e2a44eddba0d,
94,condition1,,,,,,,0.0-4.0,32,,,5521.750000072643,,"<p>If you successfully match the original order for all trials, you will receive a bonus.</p><p>Good luck!</p><p>Press spacebar to continue.</p>",,587482,,4,html-keyboard-response,,f1a4dc76-2a00-47fe-8d39-6f64085874d4,15227e1e-658e-4861-bc2d-e2a44eddba0d,
94,condition1,,,True,,,,0.0-5.0-0.0,,,"['there', 'was', 'no', 'time', 'to']",,"['there', 'was', 'no', 'time', 'to']",,test,620572,1,5,cloze,,f1a4dc76-2a00-47fe-8d39-6f64085874d4,15227e1e-658e-4861-bc2d-e2a44eddba0d,
94,condition1,,,,,,,0.0-5.0-1.0,,,,,,"<img src=""correct.png"" width=100</img><p>Correct!</p>",fixation,621591,,6,html-keyboard-response,,f1a4dc76-2a00-47fe-8d39-6f64085874d4,15227e1e-658e-4861-bc2d-e2a44eddba0d,
94,condition1,,,False,,,,0.0-5.0-0.1,,,"['not', 'that', 'he', 'would', 'understand']",,"['that', 'he', 'would', 'not', 'understand']",,test,687466,1,7,cloze,,f1a4dc76-2a00-47fe-8d39-6f64085874d4,15227e1e-658e-4861-bc2d-e2a44eddba0d,
94,condition1,,,,,,,0.0-5.0-1.1,,,,,,<p>Wrong.<p>,fixation,691480,,8,html-keyboard-response,,f1a4dc76-2a00-47fe-8d39-6f64085874d4,15227e1e-658e-4861-bc2d-e2a44eddba0d,
94,condition1,,,True,,,,0.0-5.0-0.2,,,"['he', 'felt', 'that', 'he', 'was']",,"['he', 'felt', 'that', 'he', 'was']",,test,713303,2,9,cloze,,f1a4dc76-2a00-47fe-8d39-6f64085874d4,15227e1e-658e-4861-bc2d-e2a44eddba0d,
94,condition1,,,,,,,0.0-5.0-1.2,,,,,,"<img src=""correct.png"" width=100</img><p>Correct!</p>",fixation,714308,,10,html-keyboard-response,,f1a4dc76-2a00-47fe-8d39-6f64085874d4,15227e1e-658e-4861-bc2d-e2a44eddba0d,
94,condition1,,,False,,,,0.0-5.0-0.3,,,"['which', 'southernly', 'world', 'had', 'centuries']",,"['southernly', 'world', 'which', 'had', 'centuries']",,test,575241,2,11,cloze,,f1a4dc76-2a00-47fe-8d39-6f64085874d4,15227e1e-658e-4861-bc2d-e2a44eddba0d,
94,condition1,,,,,,,0.0-5.0-1.3,,,,,,<p>Wrong.<p>,fixation,579251,,12,html-keyboard-response,,f1a4dc76-2a00-47fe-8d39-6f64085874d4,15227e1e-658e-4861-bc2d-e2a44eddba0d,
94,condition1,,,False,,,,0.0-5.0-0.4,,,"['slow', 'the', 'rise', 'of', 'the']",,"['the', 'slow', 'rise', 'of', 'the']",,test,602410,2,13,cloze,,f1a4dc76-2a00-47fe-8d39-6f64085874d4,15227e1e-658e-4861-bc2d-e2a44eddba0d,
94,condition1,,,,,,,0.0-5.0-1.4,,,,,,<p>Wrong.<p>,fixation,606413,,14,html-keyboard-response,,f1a4dc76-2a00-47fe-8d39-6f64085874d4,15227e1e-658e-4861-bc2d-e2a44eddba0d,
94,condition1,,,False,,,,0.0-5.0-0.5,,,"['know', 'what', 'to', 'do', 'to']",,"['to', 'know', 'what', 'to', 'do']",,test,677036,2,15,cloze,,f1a4dc76-2a00-47fe-8d39-6f64085874d4,15227e1e-658e-4861-bc2d-e2a44eddba0d,
94,condition1,,,,,,,0.0-5.0-1.5,,,,,,<p>Wrong.<p>,fixation,681040,,16,html-keyboard-response,,f1a4dc76-2a00-47fe-8d39-6f64085874d4,15227e1e-658e-4861-bc2d-e2a44eddba0d,
94,condition1,,,True,,,,0.0-5.0-0.6,,,"['did', 'not', 'know', 'that', 'his']",,"['did', 'not', 'know', 'that', 'his']",,test,710662,3,17,cloze,,f1a4dc76-2a00-47fe-8d39-6f64085874d4,15227e1e-658e-4861-bc2d-e2a44eddba0d,
94,condition1,,,,,,,0.0-5.0-1.6,,,,,,"<img src=""correct.png"" width=100</img><p>Correct!</p>",fixation,711668,,18,html-keyboard-response,,f1a4dc76-2a00-47fe-8d39-6f64085874d4,15227e1e-658e-4861-bc2d-e2a44eddba0d,
94,condition1,,,False,,,,0.0-5.0-0.7,,,"['are', 'concessionnaires', 'goes', 'in', 'question']",,"['concessionnaires', 'are', 'in', 'question', 'goes']",,test,915414,3,19,cloze,,f1a4dc76-2a00-47fe-8d39-6f64085874d4,15227e1e-658e-4861-bc2d-e2a44eddba0d,
94,condition1,,,,,,,0.0-5.0-1.7,,,,,,<p>Wrong.<p>,fixation,919434,,20,html-keyboard-response,,f1a4dc76-2a00-47fe-8d39-6f64085874d4,15227e1e-658e-4861-bc2d-e2a44eddba0d,
94,condition1,,,False,,,,0.0-5.0-0.8,,,"['capture', 'and', 'give', 'it', 'again']",,"['capture', 'it', 'again', 'and', 'give']",,test,953628,3,21,cloze,,f1a4dc76-2a00-47fe-8d39-6f64085874d4,15227e1e-658e-4861-bc2d-e2a44eddba0d,
94,condition1,,,,,,,0.0-5.0-1.8,,,,,,<p>Wrong.<p>,fixation,958252,,22,html-keyboard-response,,f1a4dc76-2a00-47fe-8d39-6f64085874d4,15227e1e-658e-4861-bc2d-e2a44eddba0d,
94,condition1,,,False,,,,0.0-5.0-0.9,,,"['the', 'volume', 'this', 'little', 'foreword']",,"['foreword', 'this', 'little', 'volume', 'the']",,test,1064895,3,23,cloze,,f1a4dc76-2a00-47fe-8d39-6f64085874d4,15227e1e-658e-4861-bc2d-e2a44eddba0d,
94,condition1,,,,,,,0.0-5.0-1.9,,,,,,<p>Wrong.<p>,fixation,1068904,,24,html-keyboard-response,,f1a4dc76-2a00-47fe-8d39-6f64085874d4,15227e1e-658e-4861-bc2d-e2a44eddba0d,
94,condition1,,,False,,,,0.0-5.0-0.10,,,"['choppers', 'and', 'would', 'load', 'some']",,"['choppers', 'would', 'load', 'and', 'some']",,test,1101390,3,25,cloze,,f1a4dc76-2a00-47fe-8d39-6f64085874d4,15227e1e-658e-4861-bc2d-e2a44eddba0d,
94,condition1,,,,,,,0.0-5.0-1.10,,,,,,<p>Wrong.<p>,fixation,1105396,,26,html-keyboard-response,,f1a4dc76-2a00-47fe-8d39-6f64085874d4,15227e1e-658e-4861-bc2d-e2a44eddba0d,
94,condition1,,,True,,,,0.0-5.0-0.11,,,"['turquoise', 'rings', 'would', 'not', 'console']",,"['turquoise', 'rings', 'would', 'not', 'console']",,test,1141175,4,27,cloze,,f1a4dc76-2a00-47fe-8d39-6f64085874d4,15227e1e-658e-4861-bc2d-e2a44eddba0d,
94,condition1,,,,,,,0.0-5.0-1.11,,,,,,"<img src=""correct.png"" width=100</img><p>Correct!</p>",fixation,1142183,,28,html-keyboard-response,,f1a4dc76-2a00-47fe-8d39-6f64085874d4,15227e1e-658e-4861-bc2d-e2a44eddba0d,
94,condition1,,,False,,,,0.0-5.0-0.12,,,"['learner', 'will', 'attach', 'himself', 'or']",,"['learner', 'or', 'will', 'attach', 'himself']",,test,1188401,4,29,cloze,,f1a4dc76-2a00-47fe-8d39-6f64085874d4,15227e1e-658e-4861-bc2d-e2a44eddba0d,
94,condition1,,,,,,,0.0-5.0-1.12,,,,,,<p>Wrong.<p>,fixation,1192404,,30,html-keyboard-response,,f1a4dc76-2a00-47fe-8d39-6f64085874d4,15227e1e-658e-4861-bc2d-e2a44eddba0d,
94,condition1,,,True,,,,0.0-5.0-0.13,,,"['idealize', 'our', 'romance', 'and', 'our']",,"['idealize', 'our', 'romance', 'and', 'our']",,test,1218696,5,31,cloze,,f1a4dc76-2a00-47fe-8d39-6f64085874d4,15227e1e-658e-4861-bc2d-e2a44eddba0d,
94,condition1,,,,,,,0.0-5.0-1.13,,,,,,"<img src=""correct.png"" width=100</img><p>Correct!</p>",fixation,1219699,,32,html-keyboard-response,,f1a4dc76-2a00-47fe-8d39-6f64085874d4,15227e1e-658e-4861-bc2d-e2a44eddba0d,
94,condition1,,,True,,,,0.0-5.0-0.14,,,"['something', 'dreadful', 'has', 'happened', 'to']",,"['something', 'dreadful', 'has', 'happened', 'to']",,test,1239527,6,33,cloze,,f1a4dc76-2a00-47fe-8d39-6f64085874d4,15227e1e-658e-4861-bc2d-e2a44eddba0d,
94,condition1,,,,,,,0.0-5.0-1.14,,,,,,"<img src=""correct.png"" width=100</img><p>Correct!</p>",fixation,1240530,,34,html-keyboard-response,,f1a4dc76-2a00-47fe-8d39-6f64085874d4,15227e1e-658e-4861-bc2d-e2a44eddba0d,
94,condition1,,,True,,,,0.0-5.0-0.15,,,"['he', 'went', 'back', 'to', 'his']",,"['he', 'went', 'back', 'to', 'his']",,test,1257144,7,35,cloze,,f1a4dc76-2a00-47fe-8d39-6f64085874d4,15227e1e-658e-4861-bc2d-e2a44eddba0d,
94,condition1,,,,,,,0.0-5.0-1.15,,,,,,"<img src=""correct.png"" width=100</img><p>Correct!</p>",fixation,1258151,,36,html-keyboard-response,,f1a4dc76-2a00-47fe-8d39-6f64085874d4,15227e1e-658e-4861-bc2d-e2a44eddba0d,
94,condition1,,,False,,,,0.0-5.0-0.16,,,"['quiet', 'and', 'take', 'a', 'minute']",,"['take', 'a', 'quiet', 'minute', 'and']",,test,1358578,7,37,cloze,,f1a4dc76-2a00-47fe-8d39-6f64085874d4,15227e1e-658e-4861-bc2d-e2a44eddba0d,
94,condition1,,,,,,,0.0-5.0-1.16,,,,,,<p>Wrong.<p>,fixation,1362595,,38,html-keyboard-response,,f1a4dc76-2a00-47fe-8d39-6f64085874d4,15227e1e-658e-4861-bc2d-e2a44eddba0d,
94,condition1,,,False,,,,0.0-5.0-0.17,,,"['lust', 'in', 'adventure', 'and', 'of']",,"['lust', 'of', 'adventure', 'and', 'in']",,test,1413721,7,39,cloze,,f1a4dc76-2a00-47fe-8d39-6f64085874d4,15227e1e-658e-4861-bc2d-e2a44eddba0d,
94,condition1,,,,,,,0.0-5.0-1.17,,,,,,<p>Wrong.<p>,fixation,1417733,,40,html-keyboard-response,,f1a4dc76-2a00-47fe-8d39-6f64085874d4,15227e1e-658e-4861-bc2d-e2a44eddba0d,
94,condition1,,,False,,,,0.0-5.0-0.18,,,"['shall', 'regard', 'as', 'having', 'them']",,"['shall', 'regard', 'them', 'as', 'having']",,test,1485963,7,41,cloze,,f1a4dc76-2a00-47fe-8d39-6f64085874d4,15227e1e-658e-4861-bc2d-e2a44eddba0d,
94,condition1,,,,,,,0.0-5.0-1.18,,,,,,<p>Wrong.<p>,fixation,1489969,,42,html-keyboard-response,,f1a4dc76-2a00-47fe-8d39-6f64085874d4,15227e1e-658e-4861-bc2d-e2a44eddba0d,
94,condition1,,,False,,,,0.0-5.0-0.19,,,"['its', 'coaling', 'company', 'has', 'paid']",,"['coaling', 'company', 'has', 'paid', 'its']",,test,1543133,7,43,cloze,,f1a4dc76-2a00-47fe-8d39-6f64085874d4,15227e1e-658e-4861-bc2d-e2a44eddba0d,
94,condition1,,,,,,,0.0-5.0-1.19,,,,,,<p>Wrong.<p>,fixation,1547138,,44,html-keyboard-response,,f1a4dc76-2a00-47fe-8d39-6f64085874d4,15227e1e-658e-4861-bc2d-e2a44eddba0d,
94,condition1,,,False,,,,0.0-5.0-0.20,,,"['the', 'south', 'upon', 'its', 'aggressions']",,"['aggressions', 'upon', 'the', 'south', 'its']",,test,1595553,7,45,cloze,,f1a4dc76-2a00-47fe-8d39-6f64085874d4,15227e1e-658e-4861-bc2d-e2a44eddba0d,
94,condition1,,,,,,,0.0-5.0-1.20,,,,,,<p>Wrong.<p>,fixation,1599566,,46,html-keyboard-response,,f1a4dc76-2a00-47fe-8d39-6f64085874d4,15227e1e-658e-4861-bc2d-e2a44eddba0d,
94,condition1,,,False,,,,0.0-5.0-0.21,,,"['the', 'concatenation', 'of', 'needed', 'circumstances']",,"['concatenation', 'of', 'circumstances', 'needed', 'the']",,test,1688025,7,47,cloze,,f1a4dc76-2a00-47fe-8d39-6f64085874d4,15227e1e-658e-4861-bc2d-e2a44eddba0d,
94,condition1,,,,,,,0.0-5.0-1.21,,,,,,<p>Wrong.<p>,fixation,1692039,,48,html-keyboard-response,,f1a4dc76-2a00-47fe-8d39-6f64085874d4,15227e1e-658e-4861-bc2d-e2a44eddba0d,
94,condition1,,,False,,,,0.0-5.0-0.22,,,"['it', 'was', 'so', 'not', 'with']",,"['it', 'was', 'not', 'so', 'with']",,test,1802600,7,49,cloze,,f1a4dc76-2a00-47fe-8d39-6f64085874d4,15227e1e-658e-4861-bc2d-e2a44eddba0d,
94,condition1,,,,,,,0.0-5.0-1.22,,,,,,<p>Wrong.<p>,fixation,1806612,,50,html-keyboard-response,,f1a4dc76-2a00-47fe-8d39-6f64085874d4,15227e1e-658e-4861-bc2d-e2a44eddba0d,
94,condition1,,,True,,,,0.0-5.0-0.23,,,"['he', 'had', 'to', 'be', 'taken']",,"['he', 'had', 'to', 'be', 'taken']",,test,1820942,8,51,cloze,,f1a4dc76-2a00-47fe-8d39-6f64085874d4,15227e1e-658e-4861-bc2d-e2a44eddba0d,
94,condition1,,,,,,,0.0-5.0-1.23,,,,,,"<img src=""correct.png"" width=100</img><p>Correct!</p>",fixation,1821944,,52,html-keyboard-response,,f1a4dc76-2a00-47fe-8d39-6f64085874d4,15227e1e-658e-4861-bc2d-e2a44eddba0d,
94,condition1,,,False,,,,0.0-5.0-0.24,,,"['desperate', 'enemy', 'made', 'a', 'last']",,"['enemy', 'made', 'a', 'last', 'desperate']",,test,1835889,8,53,cloze,,f1a4dc76-2a00-47fe-8d39-6f64085874d4,15227e1e-658e-4861-bc2d-e2a44eddba0d,
94,condition1,,,,,,,0.0-5.0-1.24,,,,,,<p>Wrong.<p>,fixation,1839893,,54,html-keyboard-response,,f1a4dc76-2a00-47fe-8d39-6f64085874d4,15227e1e-658e-4861-bc2d-e2a44eddba0d,
94,condition1,,,True,,,,0.0-5.0-0.25,,,"['book', 'and', 'try', 'not', 'only']",,"['book', 'and', 'try', 'not', 'only']",,test,1865435,9,55,cloze,,f1a4dc76-2a00-47fe-8d39-6f64085874d4,15227e1e-658e-4861-bc2d-e2a44eddba0d,
94,condition1,,,,,,,0.0-5.0-1.25,,,,,,"<img src=""correct.png"" width=100</img><p>Correct!</p>",fixation,1866438,,56,html-keyboard-response,,f1a4dc76-2a00-47fe-8d39-6f64085874d4,15227e1e-658e-4861-bc2d-e2a44eddba0d,
94,condition1,,,True,,,,0.0-5.0-0.26,,,"['can', 'thank', 'you', 'enough', 'for']",,"['can', 'thank', 'you', 'enough', 'for']",,test,1912741,10,57,cloze,,f1a4dc76-2a00-47fe-8d39-6f64085874d4,15227e1e-658e-4861-bc2d-e2a44eddba0d,
94,condition1,,,,,,,0.0-5.0-1.26,,,,,,"<img src=""correct.png"" width=100</img><p>Correct!</p>",fixation,1913744,,58,html-keyboard-response,,f1a4dc76-2a00-47fe-8d39-6f64085874d4,15227e1e-658e-4861-bc2d-e2a44eddba0d,
94,condition1,,,True,,,,0.0-5.0-0.27,,,"['as', 'well', 'as', 'in', 'the']",,"['as', 'well', 'as', 'in', 'the']",,test,1958348,11,59,cloze,,f1a4dc76-2a00-47fe-8d39-6f64085874d4,15227e1e-658e-4861-bc2d-e2a44eddba0d,
94,condition1,,,,,,,0.0-5.0-1.27,,,,,,"<img src=""correct.png"" width=100</img><p>Correct!</p>",fixation,1959350,,60,html-keyboard-response,,f1a4dc76-2a00-47fe-8d39-6f64085874d4,15227e1e-658e-4861-bc2d-e2a44eddba0d,
94,condition1,,,False,,,,0.0-5.0-0.28,,,"['the', 'ineptitudes', 'or', 'worse', 'thinks']",,"['ineptitudes', 'or', 'thinks', 'the', 'worse']",,test,2055802,11,61,cloze,,f1a4dc76-2a00-47fe-8d39-6f64085874d4,15227e1e-658e-4861-bc2d-e2a44eddba0d,
94,condition1,,,,,,,0.0-5.0-1.28,,,,,,<p>Wrong.<p>,fixation,2059809,,62,html-keyboard-response,,f1a4dc76-2a00-47fe-8d39-6f64085874d4,15227e1e-658e-4861-bc2d-e2a44eddba0d,
94,condition1,,,False,,,,0.0-5.0-0.29,,,"['human', 'nature', 'that', 'both', 'them']",,"['them', 'that', 'both', 'human', 'nature']",,test,2102078,11,63,cloze,,f1a4dc76-2a00-47fe-8d39-6f64085874d4,15227e1e-658e-4861-bc2d-e2a44eddba0d,
94,condition1,,,,,,,0.0-5.0-1.29,,,,,,<p>Wrong.<p>,fixation,2106081,,64,html-keyboard-response,,f1a4dc76-2a00-47fe-8d39-6f64085874d4,15227e1e-658e-4861-bc2d-e2a44eddba0d,
94,condition1,,,True,,,,0.0-5.0-0.30,,,"['you', 'will', 'come', 'to', 'me']",,"['you', 'will', 'come', 'to', 'me']",,test,2120746,12,65,cloze,,f1a4dc76-2a00-47fe-8d39-6f64085874d4,15227e1e-658e-4861-bc2d-e2a44eddba0d,
94,condition1,,,,,,,0.0-5.0-1.30,,,,,,"<img src=""correct.png"" width=100</img><p>Correct!</p>",fixation,2121751,,66,html-keyboard-response,,f1a4dc76-2a00-47fe-8d39-6f64085874d4,15227e1e-658e-4861-bc2d-e2a44eddba0d,
94,condition1,,,False,,,,0.0-5.0-0.31,,,"['his', 'avaricious', 'unfeeling', 'and', 'imminently']",,"['imminently', 'his', 'avaricious', 'and', 'unfeeling']",,test,2180997,12,67,cloze,,f1a4dc76-2a00-47fe-8d39-6f64085874d4,15227e1e-658e-4861-bc2d-e2a44eddba0d,
94,condition1,,,,,,,0.0-5.0-1.31,,,,,,<p>Wrong.<p>,fixation,2185003,,68,html-keyboard-response,,f1a4dc76-2a00-47fe-8d39-6f64085874d4,15227e1e-658e-4861-bc2d-e2a44eddba0d,
94,condition1,,,True,,,,0.0-5.0-0.32,,,"['the', 'rest', 'of', 'the', 'world']",,"['the', 'rest', 'of', 'the', 'world']",,test,2206385,13,69,cloze,,f1a4dc76-2a00-47fe-8d39-6f64085874d4,15227e1e-658e-4861-bc2d-e2a44eddba0d,
94,condition1,,,,,,,0.0-5.0-1.32,,,,,,"<img src=""correct.png"" width=100</img><p>Correct!</p>",fixation,2207388,,70,html-keyboard-response,,f1a4dc76-2a00-47fe-8d39-6f64085874d4,15227e1e-658e-4861-bc2d-e2a44eddba0d,
94,condition1,,,False,,,,0.0-5.0-0.33,,,"['author', 'and', 'shaper', 'of', 'environment']",,"['shaper', 'and', 'author', 'of', 'environment']",,test,2229563,13,71,cloze,,f1a4dc76-2a00-47fe-8d39-6f64085874d4,15227e1e-658e-4861-bc2d-e2a44eddba0d,
94,condition1,,,,,,,0.0-5.0-1.33,,,,,,<p>Wrong.<p>,fixation,2233569,,72,html-keyboard-response,,f1a4dc76-2a00-47fe-8d39-6f64085874d4,15227e1e-658e-4861-bc2d-e2a44eddba0d,
94,condition1,,,False,,,,0.0-5.0-0.34,,,"['vociferating', 'dreadful', 'oaths', 'to', 'hear']",,"['vociferating', 'oaths', 'dreadful', 'to', 'hear']",,test,2303652,13,73,cloze,,f1a4dc76-2a00-47fe-8d39-6f64085874d4,15227e1e-658e-4861-bc2d-e2a44eddba0d,
94,condition1,,,,,,,0.0-5.0-1.34,,,,,,<p>Wrong.<p>,fixation,2308456,,74,html-keyboard-response,,f1a4dc76-2a00-47fe-8d39-6f64085874d4,15227e1e-658e-4861-bc2d-e2a44eddba0d,
94,condition1,,,False,,,,0.0-5.0-0.35,,,"['his', 'views', 'summarize', 'as', 'he']",,"['summarize', 'his', 'views', 'as', 'he']",,test,2401944,13,75,cloze,,f1a4dc76-2a00-47fe-8d39-6f64085874d4,15227e1e-658e-4861-bc2d-e2a44eddba0d,
94,condition1,,,,,,,0.0-5.0-1.35,,,,,,<p>Wrong.<p>,fixation,2405952,,76,html-keyboard-response,,f1a4dc76-2a00-47fe-8d39-6f64085874d4,15227e1e-658e-4861-bc2d-e2a44eddba0d,
94,condition1,,,False,,,,0.0-5.0-0.36,,,"['though', 'never', 'notable', 'that', 'she']",,"['notable', 'that', 'though', 'she', 'never']",,test,2482483,13,77,cloze,,f1a4dc76-2a00-47fe-8d39-6f64085874d4,15227e1e-658e-4861-bc2d-e2a44eddba0d,
94,condition1,,,,,,,0.0-5.0-1.36,,,,,,<p>Wrong.<p>,fixation,2486488,,78,html-keyboard-response,,f1a4dc76-2a00-47fe-8d39-6f64085874d4,15227e1e-658e-4861-bc2d-e2a44eddba0d,
94,condition1,,,False,,,,0.0-5.0-0.37,,,"['is', 'most', 'famous', 'a', 'diligent']",,"['most', 'famous', 'is', 'a', 'diligent']",,test,2607471,13,79,cloze,,f1a4dc76-2a00-47fe-8d39-6f64085874d4,15227e1e-658e-4861-bc2d-e2a44eddba0d,
94,condition1,,,,,,,0.0-5.0-1.37,,,,,,<p>Wrong.<p>,fixation,2611476,,80,html-keyboard-response,,f1a4dc76-2a00-47fe-8d39-6f64085874d4,15227e1e-658e-4861-bc2d-e2a44eddba0d,
94,condition1,,,True,,,,0.0-5.0-0.38,,,"['and', 'you', 'will', 'not', 'be']",,"['and', 'you', 'will', 'not', 'be']",,test,2623913,14,81,cloze,,f1a4dc76-2a00-47fe-8d39-6f64085874d4,15227e1e-658e-4861-bc2d-e2a44eddba0d,
94,condition1,,,,,,,0.0-5.0-1.38,,,,,,"<img src=""correct.png"" width=100</img><p>Correct!</p>",fixation,2624917,,82,html-keyboard-response,,f1a4dc76-2a00-47fe-8d39-6f64085874d4,15227e1e-658e-4861-bc2d-e2a44eddba0d,
94,condition1,,,False,,,,0.0-5.0-0.39,,,"['actions', 'alternately', 'our', 'moralities', 'shine']",,"['moralities', 'our', 'actions', 'shine', 'alternately']",,test,2700555,14,83,cloze,,f1a4dc76-2a00-47fe-8d39-6f64085874d4,15227e1e-658e-4861-bc2d-e2a44eddba0d,
94,condition1,,,,,,,0.0-5.0-1.39,,,,,,<p>Wrong.<p>,fixation,2704561,,84,html-keyboard-response,,f1a4dc76-2a00-47fe-8d39-6f64085874d4,15227e1e-658e-4861-bc2d-e2a44eddba0d,
94,condition1,,,False,,,,0.0-5.0-0.40,,,"['fielding', 'displayed', 'a', 'gentle', 'quiet']",,"['fielding', 'displayed', 'a', 'quiet', 'gentle']",,test,3023845,14,85,cloze,,f1a4dc76-2a00-47fe-8d39-6f64085874d4,15227e1e-658e-4861-bc2d-e2a44eddba0d,
94,condition1,,,,,,,0.0-5.0-1.40,,,,,,<p>Wrong.<p>,fixation,3027852,,86,html-keyboard-response,,f1a4dc76-2a00-47fe-8d39-6f64085874d4,15227e1e-658e-4861-bc2d-e2a44eddba0d,
94,condition1,,,True,,,,0.0-5.0-0.41,,,"['it', 'is', 'not', 'necessary', 'to']",,"['it', 'is', 'not', 'necessary', 'to']",,test,3042671,15,87,cloze,,f1a4dc76-2a00-47fe-8d39-6f64085874d4,15227e1e-658e-4861-bc2d-e2a44eddba0d,
94,condition1,,,,,,,0.0-5.0-1.41,,,,,,"<img src=""correct.png"" width=100</img><p>Correct!</p>",fixation,3043686,,88,html-keyboard-response,,f1a4dc76-2a00-47fe-8d39-6f64085874d4,15227e1e-658e-4861-bc2d-e2a44eddba0d,
94,condition1,,,False,,,,0.0-5.0-0.42,,,"['corner', 'stood', 'and', 'was', 'in']",,"['stood', 'in', 'corner', 'and', 'was']",,test,3199290,15,89,cloze,,f1a4dc76-2a00-47fe-8d39-6f64085874d4,15227e1e-658e-4861-bc2d-e2a44eddba0d,
94,condition1,,,,,,,0.0-5.0-1.42,,,,,,<p>Wrong.<p>,fixation,3203326,,90,html-keyboard-response,,f1a4dc76-2a00-47fe-8d39-6f64085874d4,15227e1e-658e-4861-bc2d-e2a44eddba0d,
94,condition1,,,True,,,,0.0-5.0-0.43,,,"['and', 'it', 'was', 'just', 'as']",,"['and', 'it', 'was', 'just', 'as']",,test,3234200,16,91,cloze,,f1a4dc76-2a00-47fe-8d39-6f64085874d4,15227e1e-658e-4861-bc2d-e2a44eddba0d,
94,condition1,,,,,,,0.0-5.0-1.43,,,,,,"<img src=""correct.png"" width=100</img><p>Correct!</p>",fixation,3235211,,92,html-keyboard-response,,f1a4dc76-2a00-47fe-8d39-6f64085874d4,15227e1e-658e-4861-bc2d-e2a44eddba0d,
94,condition1,,,False,,,,0.0-5.0-0.44,,,"['some', 'comfort', 'and', 'are', 'my']",,"['are', 'my', 'comfort', 'and', 'some']",,test,3265449,16,93,cloze,,f1a4dc76-2a00-47fe-8d39-6f64085874d4,15227e1e-658e-4861-bc2d-e2a44eddba0d,
94,condition1,,,,,,,0.0-5.0-1.44,,,,,,<p>Wrong.<p>,fixation,3269463,,94,html-keyboard-response,,f1a4dc76-2a00-47fe-8d39-6f64085874d4,15227e1e-658e-4861-bc2d-e2a44eddba0d,
94,condition1,,,True,,,,0.0-5.0-0.45,,,"['be', 'able', 'to', 'believe', 'that']",,"['be', 'able', 'to', 'believe', 'that']",,test,3298023,17,95,cloze,,f1a4dc76-2a00-47fe-8d39-6f64085874d4,15227e1e-658e-4861-bc2d-e2a44eddba0d,
94,condition1,,,,,,,0.0-5.0-1.45,,,,,,"<img src=""correct.png"" width=100</img><p>Correct!</p>",fixation,3299029,,96,html-keyboard-response,,f1a4dc76-2a00-47fe-8d39-6f64085874d4,15227e1e-658e-4861-bc2d-e2a44eddba0d,
94,condition1,,,True,,,,0.0-5.0-0.46,,,"['with', 'no', 'obstruction', 'between', 'us']",,"['with', 'no', 'obstruction', 'between', 'us']",,test,3332762,18,97,cloze,,f1a4dc76-2a00-47fe-8d39-6f64085874d4,15227e1e-658e-4861-bc2d-e2a44eddba0d,
94,condition1,,,,,,,0.0-5.0-1.46,,,,,,"<img src=""correct.png"" width=100</img><p>Correct!</p>",fixation,3333775,,98,html-keyboard-response,,f1a4dc76-2a00-47fe-8d39-6f64085874d4,15227e1e-658e-4861-bc2d-e2a44eddba0d,
94,condition1,,,True,,,,0.0-5.0-0.47,,,"['that', 'he', 'had', 'done', 'his']",,"['that', 'he', 'had', 'done', 'his']",,test,3355200,19,99,cloze,,f1a4dc76-2a00-47fe-8d39-6f64085874d4,15227e1e-658e-4861-bc2d-e2a44eddba0d,
94,condition1,,,,,,,0.0-5.0-1.47,,,,,,"<img src=""correct.png"" width=100</img><p>Correct!</p>",fixation,3356205,,100,html-keyboard-response,,f1a4dc76-2a00-47fe-8d39-6f64085874d4,15227e1e-658e-4861-bc2d-e2a44eddba0d,
94,condition1,,,False,,,,0.0-5.0-0.48,,,"['falsifies', 'itself', 'for', 'certain', 'traits']",,"['falsifies', 'for', 'itself', 'certain', 'traits']",,test,3389000,19,101,cloze,,f1a4dc76-2a00-47fe-8d39-6f64085874d4,15227e1e-658e-4861-bc2d-e2a44eddba0d,
94,condition1,,,,,,,0.0-5.0-1.48,,,,,,<p>Wrong.<p>,fixation,3393015,,102,html-keyboard-response,,f1a4dc76-2a00-47fe-8d39-6f64085874d4,15227e1e-658e-4861-bc2d-e2a44eddba0d,
94,condition1,,,False,,,,0.0-5.0-0.49,,,"['though', 'and', 'he', 'met', 'my']",,"['met', 'though', 'he', 'and', 'my']",,test,3449793,19,103,cloze,,f1a4dc76-2a00-47fe-8d39-6f64085874d4,15227e1e-658e-4861-bc2d-e2a44eddba0d,
94,condition1,,,,,,,0.0-5.0-1.49,,,,,,<p>Wrong.<p>,fixation,3453807,,104,html-keyboard-response,,f1a4dc76-2a00-47fe-8d39-6f64085874d4,15227e1e-658e-4861-bc2d-e2a44eddba0d,
94,condition1,,,True,,,,0.0-5.0-0.50,,,"['connected', 'with', 'the', 'wilderness', 'campaign']",,"['connected', 'with', 'the', 'wilderness', 'campaign']",,test,3552222,20,105,cloze,,f1a4dc76-2a00-47fe-8d39-6f64085874d4,15227e1e-658e-4861-bc2d-e2a44eddba0d,
94,condition1,,,,,,,0.0-5.0-1.50,,,,,,"<img src=""correct.png"" width=100</img><p>Correct!</p>",fixation,3553236,,106,html-keyboard-response,,f1a4dc76-2a00-47fe-8d39-6f64085874d4,15227e1e-658e-4861-bc2d-e2a44eddba0d,
94,condition1,,,False,,,,0.0-5.0-0.51,,,"['how', 'could', 'she', 'not', 'understand']",,"['she', 'could', 'not', 'understand', 'how']",,test,3563970,20,107,cloze,,f1a4dc76-2a00-47fe-8d39-6f64085874d4,15227e1e-658e-4861-bc2d-e2a44eddba0d,
94,condition1,,,,,,,0.0-5.0-1.51,,,,,,<p>Wrong.<p>,fixation,3567977,,108,html-keyboard-response,,f1a4dc76-2a00-47fe-8d39-6f64085874d4,15227e1e-658e-4861-bc2d-e2a44eddba0d,
94,condition1,,,False,,,,0.0-5.0-0.52,,,"['ornamental', 'pipe', 'to', 'the', 'rim']",,"['ornamental', 'rim', 'to', 'the', 'pipe']",,test,3640382,20,109,cloze,,f1a4dc76-2a00-47fe-8d39-6f64085874d4,15227e1e-658e-4861-bc2d-e2a44eddba0d,
94,condition1,,,,,,,0.0-5.0-1.52,,,,,,<p>Wrong.<p>,fixation,3644388,,110,html-keyboard-response,,f1a4dc76-2a00-47fe-8d39-6f64085874d4,15227e1e-658e-4861-bc2d-e2a44eddba0d,
94,condition1,,,True,,,,0.0-5.0-0.53,,,"['that', 'her', 'temper', 'is', 'intractable']",,"['that', 'her', 'temper', 'is', 'intractable']",,test,3665253,21,111,cloze,,f1a4dc76-2a00-47fe-8d39-6f64085874d4,15227e1e-658e-4861-bc2d-e2a44eddba0d,
94,condition1,,,,,,,0.0-5.0-1.53,,,,,,"<img src=""correct.png"" width=100</img><p>Correct!</p>",fixation,3666258,,112,html-keyboard-response,,f1a4dc76-2a00-47fe-8d39-6f64085874d4,15227e1e-658e-4861-bc2d-e2a44eddba0d,
94,condition1,,,True,,,,0.0-5.0-0.54,,,"['in', 'order', 'to', 'get', 'to']",,"['in', 'order', 'to', 'get', 'to']",,test,3694896,22,113,cloze,,f1a4dc76-2a00-47fe-8d39-6f64085874d4,15227e1e-658e-4861-bc2d-e2a44eddba0d,
94,condition1,,,,,,,0.0-5.0-1.54,,,,,,"<img src=""correct.png"" width=100</img><p>Correct!</p>",fixation,3695907,,114,html-keyboard-response,,f1a4dc76-2a00-47fe-8d39-6f64085874d4,15227e1e-658e-4861-bc2d-e2a44eddba0d,
94,condition1,,,False,,,,0.0-5.0-0.55,,,"['children', 'as', 'under', 'menageries', 'it']",,"['menageries', 'under', 'it', 'as', 'children']",,test,3760318,22,115,cloze,,f1a4dc76-2a00-47fe-8d39-6f64085874d4,15227e1e-658e-4861-bc2d-e2a44eddba0d,
94,condition1,,,,,,,0.0-5.0-1.55,,,,,,<p>Wrong.<p>,fixation,3765738,,116,html-keyboard-response,,f1a4dc76-2a00-47fe-8d39-6f64085874d4,15227e1e-658e-4861-bc2d-e2a44eddba0d,
94,condition1,,,True,,,,0.0-5.0-0.56,,,"['that', 'in', 'spite', 'of', 'his']",,"['that', 'in', 'spite', 'of', 'his']",,test,3801557,23,117,cloze,,f1a4dc76-2a00-47fe-8d39-6f64085874d4,15227e1e-658e-4861-bc2d-e2a44eddba0d,
94,condition1,,,,,,,0.0-5.0-1.56,,,,,,"<img src=""correct.png"" width=100</img><p>Correct!</p>",fixation,3802564,,118,html-keyboard-response,,f1a4dc76-2a00-47fe-8d39-6f64085874d4,15227e1e-658e-4861-bc2d-e2a44eddba0d,
94,condition1,,,False,,,,0.0-5.0-0.57,,,"['the', 'statistics', 'of', 'the', 'race']",,"['the', 'race', 'statistics', 'of', 'the']",,test,3834972,23,119,cloze,,f1a4dc76-2a00-47fe-8d39-6f64085874d4,15227e1e-658e-4861-bc2d-e2a44eddba0d,
94,condition1,,,,,,,0.0-5.0-1.57,,,,,,<p>Wrong.<p>,fixation,3838975,,120,html-keyboard-response,,f1a4dc76-2a00-47fe-8d39-6f64085874d4,15227e1e-658e-4861-bc2d-e2a44eddba0d,
94,condition1,,,True,,,,0.0-5.0-0.58,,,"['she', 'might', 'risk', 'such', 'a']",,"['she', 'might', 'risk', 'such', 'a']",,test,3858001,24,121,cloze,,f1a4dc76-2a00-47fe-8d39-6f64085874d4,15227e1e-658e-4861-bc2d-e2a44eddba0d,
94,condition1,,,,,,,0.0-5.0-1.58,,,,,,"<img src=""correct.png"" width=100</img><p>Correct!</p>",fixation,3859013,,122,html-keyboard-response,,f1a4dc76-2a00-47fe-8d39-6f64085874d4,15227e1e-658e-4861-bc2d-e2a44eddba0d,
94,condition1,,,True,,,,0.0-5.0-0.59,,,"['a', 'great', 'deal', 'more', 'of']",,"['a', 'great', 'deal', 'more', 'of']",,test,3879489,25,123,cloze,,f1a4dc76-2a00-47fe-8d39-6f64085874d4,15227e1e-658e-4861-bc2d-e2a44eddba0d,
94,condition1,,,,,,,0.0-5.0-1.59,,,,,,"<img src=""correct.png"" width=100</img><p>Correct!</p>",fixation,3880500,,124,html-keyboard-response,,f1a4dc76-2a00-47fe-8d39-6f64085874d4,15227e1e-658e-4861-bc2d-e2a44eddba0d,
94,condition1,,,,,,,0.0-6.0,32,,,6360.295000020415,,"<p>You responded correctly on 42% of the trials.</p><p>Despite this, we've decided to award you the bonus anyway. Congratulations!</p><img src='star.gif'></img><p>Press any key to continue. Thank you!</p>",,3886883,,125,html-keyboard-response,,f1a4dc76-2a00-47fe-8d39-6f64085874d4,15227e1e-658e-4861-bc2d-e2a44eddba0d,
94,condition1,22,"I was interested in it, but I found it very frustrating and difficult. I also found it a bit long. Maybe adding in some instructions for when you get stuck might be helpful because I tended to really linger on the difficult ones. It was a cool exercise though. Good luck!",,Graduated College,Worse than the average experiment,Male,0.0-7.0,,English,,,,,,4160162,,126,cloze-blank,Yes,f1a4dc76-2a00-47fe-8d39-6f64085874d4,15227e1e-658e-4861-bc2d-e2a44eddba0d,
85,condition1,,,,,,,0.0-0.0,32,,,1149,,"<p>University of California, Irvine Language Processing Group</p><p id=""legal"">By answering the following questions, you are participating in a study being performed by cognitive scientists in the University of California, Irvine Department of Language Science. If you have questions about this research, please contact Richard Futrell at rfutrell@uci.edu or Ryan Lee, at leerk3@uci.edu. You must be at least 18 years old to participate. Your participation in this research is voluntary. You may decline to answer any or all of the following questions. You may decline further participation, at any time, without adverse consequences. Your anonymity is assured; the researchers who have requested your participation will not receive any personal information about you.</p><p>Press spacebar to continue.</p>",,1153,,0,html-keyboard-response,,f1a4dc76-2a00-47fe-8d39-6f64085874d4,2364f046-4c49-473b-b3e9-ea54a38a8f5f,
85,condition1,,,,,,,0.0-1.0,32,,,759,,Welcome to the experiment. Press spacebar to begin.,,1913,,1,html-keyboard-response,,f1a4dc76-2a00-47fe-8d39-6f64085874d4,2364f046-4c49-473b-b3e9-ea54a38a8f5f,
85,condition1,,,,,,,0.0-2.0,32,,,466,,"<p>A five-word sequence taken from a sentence will be given to you in random order.</p><p>Your task is to rearrange the words to match the original order from which they came.</p><p>However, you will not be given the original sentence.</p><p>For example:</p><video width='852' height='480' controls><source src='first_example_3.mp4' type='video/mp4'></video><p>Press spacebar to continue with the instructions.</p>",,2402,,2,html-keyboard-response,,f1a4dc76-2a00-47fe-8d39-6f64085874d4,2364f046-4c49-473b-b3e9-ea54a38a8f5f,
85,condition1,,,,,,,0.0-3.0,32,,,1534,,"<p>Note two things.</p><p>1. The five words may have been taken from any point within a sentence.</p><video width='852' height='480' controls><source src='note1_example_(quicker).mp4' type='video/mp4'></video><p>2. If you encounter multiple possibilities like this, just pick one order.</p><video width='852' height='480' controls><source src='note2_example_final.mp4' type='video/mp4'></video><p>You will be given the option to re-randomize the words and clear your input.</p><p>Press spacebar to continue.</p>",,3954,,3,html-keyboard-response,,f1a4dc76-2a00-47fe-8d39-6f64085874d4,2364f046-4c49-473b-b3e9-ea54a38a8f5f,
85,condition1,,,,,,,0.0-4.0,32,,,845,,"<p>If you successfully match the original order for all trials, you will receive a bonus.</p><p>Good luck!</p><p>Press spacebar to continue.</p>",,4800,,4,html-keyboard-response,,f1a4dc76-2a00-47fe-8d39-6f64085874d4,2364f046-4c49-473b-b3e9-ea54a38a8f5f,
85,condition1,,,True,,,,0.0-5.0-0.0,,,"['to', 'know', 'what', 'to', 'do']",,"['to', 'know', 'what', 'to', 'do']",,test,25820,1,5,cloze,,f1a4dc76-2a00-47fe-8d39-6f64085874d4,2364f046-4c49-473b-b3e9-ea54a38a8f5f,
85,condition1,,,,,,,0.0-5.0-1.0,,,,,,"<img src=""correct.png"" width=100</img><p>Correct!</p>",fixation,26823,,6,html-keyboard-response,,f1a4dc76-2a00-47fe-8d39-6f64085874d4,2364f046-4c49-473b-b3e9-ea54a38a8f5f,
85,condition1,,,True,,,,0.0-5.0-0.1,,,"['he', 'had', 'to', 'be', 'taken']",,"['he', 'had', 'to', 'be', 'taken']",,test,34251,2,7,cloze,,f1a4dc76-2a00-47fe-8d39-6f64085874d4,2364f046-4c49-473b-b3e9-ea54a38a8f5f,
85,condition1,,,,,,,0.0-5.0-1.1,,,,,,"<img src=""correct.png"" width=100</img><p>Correct!</p>",fixation,35253,,8,html-keyboard-response,,f1a4dc76-2a00-47fe-8d39-6f64085874d4,2364f046-4c49-473b-b3e9-ea54a38a8f5f,
85,condition1,,,True,,,,0.0-5.0-0.2,,,"['there', 'was', 'no', 'time', 'to']",,"['there', 'was', 'no', 'time', 'to']",,test,49755,3,9,cloze,,f1a4dc76-2a00-47fe-8d39-6f64085874d4,2364f046-4c49-473b-b3e9-ea54a38a8f5f,
85,condition1,,,,,,,0.0-5.0-1.2,,,,,,"<img src=""correct.png"" width=100</img><p>Correct!</p>",fixation,50759,,10,html-keyboard-response,,f1a4dc76-2a00-47fe-8d39-6f64085874d4,2364f046-4c49-473b-b3e9-ea54a38a8f5f,
85,condition1,,,,,,,0.0-6.0,32,,,2393,,"<p>You responded correctly on 100% of the trials.</p><p>Despite this, we've decided to award you the bonus anyway. Congratulations!</p><img src='star.gif'></img><p>Press any key to continue. Thank you!</p>",,53152,,11,html-keyboard-response,,f1a4dc76-2a00-47fe-8d39-6f64085874d4,2364f046-4c49-473b-b3e9-ea54a38a8f5f,
85,condition1,42,This is a test.,,Graduated College,An average experiment,Female,0.0-7.0,,English,,,,,,67214,,12,cloze-blank,Yes,f1a4dc76-2a00-47fe-8d39-6f64085874d4,2364f046-4c49-473b-b3e9-ea54a38a8f5f,
