,workerid,proliferate.condition,age,comments,correct,education_level,enjoyment,gender,internal_node_id,key_press,native_language,response,rt,solution,stimulus,test_part,time_elapsed,total_score,trial_index,trial_type,understanding,experiment_id,participant_id,error,words
0,150,condition1,,,,,,,0.0-0.0,32.0,,,1172330.8549999783,,"<p>University of California, Irvine Language Processing Group</p><p id=""legal"">By answering the following questions, you are participating in a study being performed by cognitive scientists in the University of California, Irvine Department of Language Science. If you have questions about this research, please contact Richard Futrell at rfutrell@uci.edu or Ryan Lee, at leerk3@uci.edu. You must be at least 18 years old to participate. Your participation in this research is voluntary. You may decline to answer any or all of the following questions. You may decline further participation, at any time, without adverse consequences. Your anonymity is assured; the researchers who have requested your participation will not receive any personal information about you.</p><p>Press spacebar to continue.</p>",,1172397,,0,html-keyboard-response,,e08884f0-14b4-49da-a491-37b6124ceb38,0ec4029d-904e-419a-8244-52e5a62d3675,,
1,150,condition1,,,,,,,0.0-1.0,32.0,,,1140.030000009574,,Welcome to the experiment. Press spacebar to begin.,,1173539,,1,html-keyboard-response,,e08884f0-14b4-49da-a491-37b6124ceb38,0ec4029d-904e-419a-8244-52e5a62d3675,,
2,150,condition1,,,,,,,0.0-2.0,32.0,,,27821.18999998784,,"<p>A five-word sequence taken from a sentence will be given to you in random order.</p><p>Your task is to rearrange the words to match the original order from which they came.</p><p>However, you will not be given the original sentence.</p><p>For example:</p><video width='852' height='480' controls><source src='first_example_3.mp4' type='video/mp4'></video><p>Press spacebar to continue with the instructions.</p>",,1201368,,2,html-keyboard-response,,e08884f0-14b4-49da-a491-37b6124ceb38,0ec4029d-904e-419a-8244-52e5a62d3675,,
3,150,condition1,,,,,,,0.0-3.0,32.0,,,6683.404999988853,,"<p>Note two things.</p><p>1. The five words may have been taken from any point within a sentence.</p><video width='852' height='480' controls><source src='note1_example_(quicker).mp4' type='video/mp4'></video><p>2. If you encounter multiple possibilities like this, just pick one order.</p><video width='852' height='480' controls><source src='note2_example_final.mp4' type='video/mp4'></video><p>You will be given the option to re-randomize the words and clear your input.</p><p>Press spacebar to continue.</p>",,1208055,,3,html-keyboard-response,,e08884f0-14b4-49da-a491-37b6124ceb38,0ec4029d-904e-419a-8244-52e5a62d3675,,
4,150,condition1,,,,,,,0.0-4.0,37.0,,,1327.8800000261979,,"<p>If you successfully match the original order for all trials, you will receive a bonus.</p><p>Good luck!</p><p>Press spacebar to continue.</p>",,1209384,,4,html-keyboard-response,,e08884f0-14b4-49da-a491-37b6124ceb38,0ec4029d-904e-419a-8244-52e5a62d3675,,
5,150,condition1,,,True,,,,0.0-5.0-0.0,,,"['as', 'free', 'from', 'irrelevant', 'additions']",,"['as', 'free', 'from', 'irrelevant', 'additions']",,test,1256755,1.0,5,cloze,,e08884f0-14b4-49da-a491-37b6124ceb38,0ec4029d-904e-419a-8244-52e5a62d3675,,"as,free,from,irrelevant,additions"
6,150,condition1,,,,,,,0.0-5.0-1.0,32.0,,,4291.1350000067605,,"<img src=""correct.png"" width=100</img><h2>Correct!</h2><h4>Your response was:</h4><p>as,free,from,irrelevant,additions</p><h4>Here is the original sentence:</h4><p>Philosophy should show us the hierarchy of our instinctive beliefs, beginning with those we hold most strongly, and presenting each as much isolated and as free from irrelevant additions as possible.</p><p style=""font-size:11px;"">(This sentence was scraped from a text from Project Gutenberg.)</p><p style=""font-size:11px;"">Press space to continue.</p>",fixation,1261051,,6,html-keyboard-response,,e08884f0-14b4-49da-a491-37b6124ceb38,0ec4029d-904e-419a-8244-52e5a62d3675,,
7,150,condition1,,,False,,,,0.0-5.0-0.1,,,"['the', 'sing', 'of', 'the', 'song']",,"['sing', 'the', 'song', 'of', 'the']",,test,1302037,1.0,7,cloze,,e08884f0-14b4-49da-a491-37b6124ceb38,0ec4029d-904e-419a-8244-52e5a62d3675,,"sing,the,song,of,the"
8,150,condition1,,,,,,,0.0-5.0-1.1,32.0,,,5876.229999994393,,"<h2>Wrong.</h2><h4>Your response was:</h4><p>the,sing,of,the,song</p><h4>Here is the correct answer and the original sentence:</h4><p>sing,the,song,of,the</p><p>I'll try to sing the song of the shepherd boy which the Pilgrims heard.</p><p style=""font-size:11px;"">(This sentence was scraped from a text from Project Gutenberg.)</p><p style=""font-size:11px;"">Press space to continue.</p>",fixation,1307916,,8,html-keyboard-response,,e08884f0-14b4-49da-a491-37b6124ceb38,0ec4029d-904e-419a-8244-52e5a62d3675,,
9,150,condition1,,,False,,,,0.0-5.0-0.2,,,"['tell', 'me', 'cause', 'its', 'about']",,"['tell', 'me', 'about', 'its', 'cause']",,test,1325882,1.0,9,cloze,,e08884f0-14b4-49da-a491-37b6124ceb38,0ec4029d-904e-419a-8244-52e5a62d3675,,"tell,me,about,its,cause"
10,150,condition1,,,,,,,0.0-5.0-1.2,32.0,,,2689.990000013495,,"<h2>Wrong.</h2><h4>Your response was:</h4><p>tell,me,cause,its,about</p><h4>Here is the correct answer and the original sentence:</h4><p>tell,me,about,its,cause</p><p>I may be acquainted, for example, with my toothache, and this knowledge may be as complete as knowledge by acquaintance ever can be, without knowing all that the dentist (who is not acquainted with it) can tell me about its cause, and without therefore knowing its 'nature' in the above sense.</p><p style=""font-size:11px;"">(This sentence was scraped from a text from Project Gutenberg.)</p><p style=""font-size:11px;"">Press space to continue.</p>",fixation,1328574,,10,html-keyboard-response,,e08884f0-14b4-49da-a491-37b6124ceb38,0ec4029d-904e-419a-8244-52e5a62d3675,,
11,150,condition1,,,False,,,,0.0-5.0-0.3,,,"['and', 'in', 'questions', 'which', 'answers']",,"['questions', 'and', 'answers', 'in', 'which']",,test,1345358,1.0,11,cloze,,e08884f0-14b4-49da-a491-37b6124ceb38,0ec4029d-904e-419a-8244-52e5a62d3675,,"questions,and,answers,in,which"
12,150,condition1,,,,,,,0.0-5.0-1.3,32.0,,,3651.210000010906,,"<h2>Wrong.</h2><h4>Your response was:</h4><p>and,in,questions,which,answers</p><h4>Here is the correct answer and the original sentence:</h4><p>questions,and,answers,in,which</p><p>"" But this is a realm of questions and answers in which a more fastidious spirit does not like to stay: for here truth has to stifle her yawns so much when she is obliged to answer.</p><p style=""font-size:11px;"">(This sentence was scraped from a text from Project Gutenberg.)</p><p style=""font-size:11px;"">Press space to continue.</p>",fixation,1349012,,12,html-keyboard-response,,e08884f0-14b4-49da-a491-37b6124ceb38,0ec4029d-904e-419a-8244-52e5a62d3675,,
13,150,condition1,,,False,,,,0.0-5.0-0.4,,,"['stirring', 'the', 'migrated', 'together', 'into']",,"['migrated', 'together', 'into', 'the', 'stirring']",,test,1396360,1.0,13,cloze,,e08884f0-14b4-49da-a491-37b6124ceb38,0ec4029d-904e-419a-8244-52e5a62d3675,,"migrated,together,into,the,stirring"
14,150,condition1,,,,,,,0.0-5.0-1.4,32.0,,,6945.659999997588,,"<h2>Wrong.</h2><h4>Your response was:</h4><p>stirring,the,migrated,together,into</p><h4>Here is the correct answer and the original sentence:</h4><p>migrated,together,into,the,stirring</p><p>'What a realisation of something more romantic than a fairy tale it would have been for Mrs. Linton Heathcliff, had she and I struck up an attachment, as her good nurse desired, and migrated together into the stirring atmosphere of the town!</p><p style=""font-size:11px;"">(This sentence was scraped from a text from Project Gutenberg.)</p><p style=""font-size:11px;"">Press space to continue.</p>",fixation,1403308,,14,html-keyboard-response,,e08884f0-14b4-49da-a491-37b6124ceb38,0ec4029d-904e-419a-8244-52e5a62d3675,,
15,150,condition1,,,True,,,,0.0-5.0-0.5,,,"['doing', 'nothing', 'except', 'singing', 'old']",,"['doing', 'nothing', 'except', 'singing', 'old']",,test,1418905,2.0,15,cloze,,e08884f0-14b4-49da-a491-37b6124ceb38,0ec4029d-904e-419a-8244-52e5a62d3675,,"doing,nothing,except,singing,old"
16,150,condition1,,,,,,,0.0-5.0-1.5,32.0,,,3049.750000005588,,"<img src=""correct.png"" width=100</img><h2>Correct!</h2><h4>Your response was:</h4><p>doing,nothing,except,singing,old</p><h4>Here is the original sentence:</h4><p>From dinner to tea she would lie in her breeze-rocked cradle, doing nothing except singing old songs--my nursery lore--to herself, or watching the birds, joint tenants, feed and entice their young ones to fly: or nestling with closed lids, half thinking, half dreaming, happier than words can express.</p><p style=""font-size:11px;"">(This sentence was scraped from a text from Project Gutenberg.)</p><p style=""font-size:11px;"">Press space to continue.</p>",fixation,1421957,,16,html-keyboard-response,,e08884f0-14b4-49da-a491-37b6124ceb38,0ec4029d-904e-419a-8244-52e5a62d3675,,
17,150,condition1,,,True,,,,0.0-5.0-0.6,,,"['mediums', 'have', 'been', 'badly', 'injured']",,"['mediums', 'have', 'been', 'badly', 'injured']",,test,1440116,3.0,17,cloze,,e08884f0-14b4-49da-a491-37b6124ceb38,0ec4029d-904e-419a-8244-52e5a62d3675,,"mediums,have,been,badly,injured"
18,150,condition1,,,,,,,0.0-5.0-1.6,32.0,,,1924.079999997048,,"<img src=""correct.png"" width=100</img><h2>Correct!</h2><h4>Your response was:</h4><p>mediums,have,been,badly,injured</p><h4>Here is the original sentence:</h4><p>When still attached to the medium the ectoplasm flies back with great force on exposure to light, and, in spite of the laughter of the scoffers, there is none the less good evidence that several mediums have been badly injured by the recoil after a light has suddenly been struck by some amateur detective.</p><p style=""font-size:11px;"">(This sentence was scraped from a text from Project Gutenberg.)</p><p style=""font-size:11px;"">Press space to continue.</p>",fixation,1442043,,18,html-keyboard-response,,e08884f0-14b4-49da-a491-37b6124ceb38,0ec4029d-904e-419a-8244-52e5a62d3675,,
19,150,condition1,,,True,,,,0.0-5.0-0.7,,,"['abandoned', 'when', 'the', 'limited', 'quantity']",,"['abandoned', 'when', 'the', 'limited', 'quantity']",,test,1463063,4.0,19,cloze,,e08884f0-14b4-49da-a491-37b6124ceb38,0ec4029d-904e-419a-8244-52e5a62d3675,,"abandoned,when,the,limited,quantity"
20,150,condition1,,,,,,,0.0-5.0-1.7,32.0,,,1084.5749999862164,,"<img src=""correct.png"" width=100</img><h2>Correct!</h2><h4>Your response was:</h4><p>abandoned,when,the,limited,quantity</p><h4>Here is the original sentence:</h4><p>All idea of adopting this latter      plan was abandoned when the limited quantity of supplies      possible to take with us was considered.</p><p style=""font-size:11px;"">(This sentence was scraped from a text from Project Gutenberg.)</p><p style=""font-size:11px;"">Press space to continue.</p>",fixation,1464150,,20,html-keyboard-response,,e08884f0-14b4-49da-a491-37b6124ceb38,0ec4029d-904e-419a-8244-52e5a62d3675,,
21,150,condition1,,,False,,,,0.0-5.0-0.8,,,"['only', 'vouched', 'for', 'by', 'one']",,"['vouched', 'for', 'by', 'only', 'one']",,test,1475841,4.0,21,cloze,,e08884f0-14b4-49da-a491-37b6124ceb38,0ec4029d-904e-419a-8244-52e5a62d3675,,"vouched,for,by,only,one"
22,150,condition1,,,,,,,0.0-5.0-1.8,32.0,,,3143.5899999924004,,"<h2>Wrong.</h2><h4>Your response was:</h4><p>only,vouched,for,by,one</p><h4>Here is the correct answer and the original sentence:</h4><p>vouched,for,by,only,one</p><p>Now, having said so much of the spirit body, and having indicated that its presence is not vouched for by only one line of evidence or school of thought, let us turn to what happens at the time of death, according to the observation of clairvoyants on this side and the posthumous accounts of the dead upon the other.</p><p style=""font-size:11px;"">(This sentence was scraped from a text from Project Gutenberg.)</p><p style=""font-size:11px;"">Press space to continue.</p>",fixation,1478986,,22,html-keyboard-response,,e08884f0-14b4-49da-a491-37b6124ceb38,0ec4029d-904e-419a-8244-52e5a62d3675,,
23,150,condition1,,,True,,,,0.0-5.0-0.9,,,"['taken', 'from', 'one', 'of', 'the']",,"['taken', 'from', 'one', 'of', 'the']",,test,1491718,5.0,23,cloze,,e08884f0-14b4-49da-a491-37b6124ceb38,0ec4029d-904e-419a-8244-52e5a62d3675,,"taken,from,one,of,the"
24,150,condition1,,,,,,,0.0-5.0-1.9,32.0,,,765.1450000121257,,"<img src=""correct.png"" width=100</img><h2>Correct!</h2><h4>Your response was:</h4><p>taken,from,one,of,the</p><h4>Here is the original sentence:</h4><p>Esther fitted up the closet with a little table, placed a footstool before it, and over it a picture taken from one of the shut-up rooms.</p><p style=""font-size:11px;"">(This sentence was scraped from a text from Project Gutenberg.)</p><p style=""font-size:11px;"">Press space to continue.</p>",fixation,1492486,,24,html-keyboard-response,,e08884f0-14b4-49da-a491-37b6124ceb38,0ec4029d-904e-419a-8244-52e5a62d3675,,
25,150,condition1,,,False,,,,0.0-5.0-0.10,,,"['is', 'only', 'one', 'who', 'recognizes']",,"['is', 'one', 'who', 'recognizes', 'only']",,test,1528856,5.0,25,cloze,,e08884f0-14b4-49da-a491-37b6124ceb38,0ec4029d-904e-419a-8244-52e5a62d3675,,"is,one,who,recognizes,only"
26,150,condition1,,,,,,,0.0-5.0-1.10,32.0,,,1793.3399999747053,,"<h2>Wrong.</h2><h4>Your response was:</h4><p>is,only,one,who,recognizes</p><h4>Here is the correct answer and the original sentence:</h4><p>is,one,who,recognizes,only</p><p>The 'practical' man, as this word is often used, is one who recognizes only material needs, who realizes that men must have food for the body, but is oblivious of the necessity of providing food for the mind.</p><p style=""font-size:11px;"">(This sentence was scraped from a text from Project Gutenberg.)</p><p style=""font-size:11px;"">Press space to continue.</p>",fixation,1530651,,26,html-keyboard-response,,e08884f0-14b4-49da-a491-37b6124ceb38,0ec4029d-904e-419a-8244-52e5a62d3675,,
27,150,condition1,,,False,,,,0.0-5.0-0.11,,,"['but', 'for', 'his', 'subject', 'popularize']",,"['popularize', 'his', 'subject', 'but', 'for']",,test,1571032,5.0,27,cloze,,e08884f0-14b4-49da-a491-37b6124ceb38,0ec4029d-904e-419a-8244-52e5a62d3675,,"popularize,his,subject,but,for"
28,150,condition1,,,,,,,0.0-5.0-1.11,32.0,,,2290.380000020377,,"<h2>Wrong.</h2><h4>Your response was:</h4><p>but,for,his,subject,popularize</p><h4>Here is the correct answer and the original sentence:</h4><p>popularize,his,subject,but,for</p><p>His great ability as a phonetician (he was, I think, the best of them all at his job) would have entitled him to high official recognition, and perhaps enabled him to popularize his subject, but for his Satanic contempt for all academic dignitaries and persons in general who thought more of Greek than of phonetics.</p><p style=""font-size:11px;"">(This sentence was scraped from a text from Project Gutenberg.)</p><p style=""font-size:11px;"">Press space to continue.</p>",fixation,1573325,,28,html-keyboard-response,,e08884f0-14b4-49da-a491-37b6124ceb38,0ec4029d-904e-419a-8244-52e5a62d3675,,
29,150,condition1,,,False,,,,0.0-5.0-0.12,,,"['great', 'development', 'interfered', 'with', 'that']",,"['interfered', 'with', 'that', 'great', 'development']",,test,1606085,5.0,29,cloze,,e08884f0-14b4-49da-a491-37b6124ceb38,0ec4029d-904e-419a-8244-52e5a62d3675,,"interfered,with,that,great,development"
30,150,condition1,,,,,,,0.0-5.0-1.12,32.0,,,1467.2649999847636,,"<h2>Wrong.</h2><h4>Your response was:</h4><p>great,development,interfered,with,that</p><h4>Here is the correct answer and the original sentence:</h4><p>interfered,with,that,great,development</p><p>Never in any way had we interfered with that great development of trade which has turned them from one of the poorest to one of the richest of European States.</p><p style=""font-size:11px;"">(This sentence was scraped from a text from Project Gutenberg.)</p><p style=""font-size:11px;"">Press space to continue.</p>",fixation,1607554,,30,html-keyboard-response,,e08884f0-14b4-49da-a491-37b6124ceb38,0ec4029d-904e-419a-8244-52e5a62d3675,,
31,150,condition1,,,True,,,,0.0-5.0-0.13,,,"['make', 'a', 'bad', 'use', 'of']",,"['make', 'a', 'bad', 'use', 'of']",,test,1617802,6.0,31,cloze,,e08884f0-14b4-49da-a491-37b6124ceb38,0ec4029d-904e-419a-8244-52e5a62d3675,,"make,a,bad,use,of"
32,150,condition1,,,,,,,0.0-5.0-1.13,32.0,,,892.3100000247358,,"<img src=""correct.png"" width=100</img><h2>Correct!</h2><h4>Your response was:</h4><p>make,a,bad,use,of</p><h4>Here is the original sentence:</h4><p>He'll make a bad use of it, I'm afraid.</p><p style=""font-size:11px;"">(This sentence was scraped from a text from Project Gutenberg.)</p><p style=""font-size:11px;"">Press space to continue.</p>",fixation,1618696,,32,html-keyboard-response,,e08884f0-14b4-49da-a491-37b6124ceb38,0ec4029d-904e-419a-8244-52e5a62d3675,,
33,150,condition1,,,True,,,,0.0-5.0-0.14,,,"['such', 'bodies', 'do', 'not', 'cease']",,"['such', 'bodies', 'do', 'not', 'cease']",,test,1630683,7.0,33,cloze,,e08884f0-14b4-49da-a491-37b6124ceb38,0ec4029d-904e-419a-8244-52e5a62d3675,,"such,bodies,do,not,cease"
34,150,condition1,,,,,,,0.0-5.0-1.14,32.0,,,872.1300000033807,,"<img src=""correct.png"" width=100</img><h2>Correct!</h2><h4>Your response was:</h4><p>such,bodies,do,not,cease</p><h4>Here is the original sentence:</h4><p>If we are challenged as to why we believe that it will continue to rise as heretofore, we may appeal to the laws of motion: the earth, we shall say, is a freely rotating body, and such bodies do not cease to rotate unless something interferes from outside, and there is nothing outside to interfere with the earth between now and to-morrow.</p><p style=""font-size:11px;"">(This sentence was scraped from a text from Project Gutenberg.)</p><p style=""font-size:11px;"">Press space to continue.</p>",fixation,1631558,,34,html-keyboard-response,,e08884f0-14b4-49da-a491-37b6124ceb38,0ec4029d-904e-419a-8244-52e5a62d3675,,
35,150,condition1,,,False,,,,0.0-5.0-0.15,,,"['daughter', 'went', 'to', 'take', 'the']",,"['the', 'daughter', 'went', 'to', 'take']",,test,1643816,7.0,35,cloze,,e08884f0-14b4-49da-a491-37b6124ceb38,0ec4029d-904e-419a-8244-52e5a62d3675,,"the,daughter,went,to,take"
36,150,condition1,,,,,,,0.0-5.0-1.15,32.0,,,1637.2950000222772,,"<h2>Wrong.</h2><h4>Your response was:</h4><p>daughter,went,to,take,the</p><h4>Here is the correct answer and the original sentence:</h4><p>the,daughter,went,to,take</p><p>But she begged so hard, and Sallie had promised to take good care of her, and a little pleasure seemed so delightful after a winter of irksome work that the mother yielded, and the daughter went to take her first taste of fashionable life.</p><p style=""font-size:11px;"">(This sentence was scraped from a text from Project Gutenberg.)</p><p style=""font-size:11px;"">Press space to continue.</p>",fixation,1645455,,36,html-keyboard-response,,e08884f0-14b4-49da-a491-37b6124ceb38,0ec4029d-904e-419a-8244-52e5a62d3675,,
37,150,condition1,,,True,,,,0.0-5.0-0.16,,,"['margin', 'is', 'part', 'of', 'it']",,"['margin', 'is', 'part', 'of', 'it']",,test,1663449,8.0,37,cloze,,e08884f0-14b4-49da-a491-37b6124ceb38,0ec4029d-904e-419a-8244-52e5a62d3675,,"margin,is,part,of,it"
38,150,condition1,,,,,,,0.0-5.0-1.16,32.0,,,665.2349999931175,,"<img src=""correct.png"" width=100</img><h2>Correct!</h2><h4>Your response was:</h4><p>margin,is,part,of,it</p><h4>Here is the original sentence:</h4><p>But this, at least, I have very clearly realised, that the ocean is there and that the margin is part of it, and that down that shelving shore the human race is destined to move slowly to deeper waters.</p><p style=""font-size:11px;"">(This sentence was scraped from a text from Project Gutenberg.)</p><p style=""font-size:11px;"">Press space to continue.</p>",fixation,1664116,,38,html-keyboard-response,,e08884f0-14b4-49da-a491-37b6124ceb38,0ec4029d-904e-419a-8244-52e5a62d3675,,
39,150,condition1,,,False,,,,0.0-5.0-0.17,,,"['a', 'script', 'combination', 'is', 'really']",,"['script', 'is', 'really', 'a', 'combination']",,test,1688956,8.0,39,cloze,,e08884f0-14b4-49da-a491-37b6124ceb38,0ec4029d-904e-419a-8244-52e5a62d3675,,"script,is,really,a,combination"
40,150,condition1,,,,,,,0.0-5.0-1.17,32.0,,,453.0099999974482,,"<h2>Wrong.</h2><h4>Your response was:</h4><p>a,script,combination,is,really</p><h4>Here is the correct answer and the original sentence:</h4><p>script,is,really,a,combination</p><p>As the Ogham script is really a combination of straight lines, the latter case may be taken with considerable reserve.</p><p style=""font-size:11px;"">(This sentence was scraped from a text from Project Gutenberg.)</p><p style=""font-size:11px;"">Press space to continue.</p>",fixation,1689411,,40,html-keyboard-response,,e08884f0-14b4-49da-a491-37b6124ceb38,0ec4029d-904e-419a-8244-52e5a62d3675,,
41,150,condition1,,,False,,,,0.0-5.0-0.18,,,"['entitled', 'to', 'best', 'consideration', 'of']",,"['best', 'entitled', 'to', 'consideration', 'of']",,test,1711576,8.0,41,cloze,,e08884f0-14b4-49da-a491-37b6124ceb38,0ec4029d-904e-419a-8244-52e5a62d3675,,"best,entitled,to,consideration,of"
42,150,condition1,,,,,,,0.0-5.0-1.18,32.0,,,984.3949999776668,,"<h2>Wrong.</h2><h4>Your response was:</h4><p>entitled,to,best,consideration,of</p><h4>Here is the correct answer and the original sentence:</h4><p>best,entitled,to,consideration,of</p><p>They supposed that it would naturally follow the freedom of the negro, but that there would be a time of probation, in which the ex-slaves could prepare themselves for the privileges of citizenship before the full right would be conferred; but Mr. Johnson, after a complete revolution of sentiment, seemed to regard the South not only as an oppressed people, but as the people best entitled to consideration of any of our citizens.</p><p style=""font-size:11px;"">(This sentence was scraped from a text from Project Gutenberg.)</p><p style=""font-size:11px;"">Press space to continue.</p>",fixation,1712562,,42,html-keyboard-response,,e08884f0-14b4-49da-a491-37b6124ceb38,0ec4029d-904e-419a-8244-52e5a62d3675,,
43,150,condition1,,,True,,,,0.0-5.0-0.19,,,"['generals', 'led', 'their', 'men', 'in']",,"['generals', 'led', 'their', 'men', 'in']",,test,1731591,9.0,43,cloze,,e08884f0-14b4-49da-a491-37b6124ceb38,0ec4029d-904e-419a-8244-52e5a62d3675,,"generals,led,their,men,in"
44,150,condition1,,,,,,,0.0-5.0-1.19,32.0,,,798.1399999989662,,"<img src=""correct.png"" width=100</img><h2>Correct!</h2><h4>Your response was:</h4><p>generals,led,their,men,in</p><h4>Here is the original sentence:</h4><p>The Confederate generals led their men in the repeated charges, and the loss among them was of unusual proportions.</p><p style=""font-size:11px;"">(This sentence was scraped from a text from Project Gutenberg.)</p><p style=""font-size:11px;"">Press space to continue.</p>",fixation,1732393,,44,html-keyboard-response,,e08884f0-14b4-49da-a491-37b6124ceb38,0ec4029d-904e-419a-8244-52e5a62d3675,,
45,150,condition1,,,False,,,,0.0-5.0-0.20,,,"['everywhere', 'was', 'met', 'by', 'large']",,"['was', 'everywhere', 'met', 'by', 'large']",,test,1756910,9.0,45,cloze,,e08884f0-14b4-49da-a491-37b6124ceb38,0ec4029d-904e-419a-8244-52e5a62d3675,,"was,everywhere,met,by,large"
46,150,condition1,,,,,,,0.0-5.0-1.20,32.0,,,1432.089999987511,,"<h2>Wrong.</h2><h4>Your response was:</h4><p>everywhere,was,met,by,large</p><h4>Here is the correct answer and the original sentence:</h4><p>was,everywhere,met,by,large</p><p>After the war, during the summer of 1865, I travelled considerably through the North, and was everywhere met by large numbers of people.</p><p style=""font-size:11px;"">(This sentence was scraped from a text from Project Gutenberg.)</p><p style=""font-size:11px;"">Press space to continue.</p>",fixation,1758344,,46,html-keyboard-response,,e08884f0-14b4-49da-a491-37b6124ceb38,0ec4029d-904e-419a-8244-52e5a62d3675,,
47,150,condition1,,,True,,,,0.0-5.0-0.21,,,"['by', 'dismissing', 'him', 'at', 'once']",,"['by', 'dismissing', 'him', 'at', 'once']",,test,1777328,10.0,47,cloze,,e08884f0-14b4-49da-a491-37b6124ceb38,0ec4029d-904e-419a-8244-52e5a62d3675,,"by,dismissing,him,at,once"
48,150,condition1,,,,,,,0.0-5.0-1.21,32.0,,,460.51000000443315,,"<img src=""correct.png"" width=100</img><h2>Correct!</h2><h4>Your response was:</h4><p>by,dismissing,him,at,once</p><h4>Here is the original sentence:</h4><p>Humbled as he now is, I cannot forgive him such an instance of pride, and am doubtful whether I ought not to punish him by dismissing him at once after this reconciliation, or by marrying and teazing him for ever.</p><p style=""font-size:11px;"">(This sentence was scraped from a text from Project Gutenberg.)</p><p style=""font-size:11px;"">Press space to continue.</p>",fixation,1777791,,48,html-keyboard-response,,e08884f0-14b4-49da-a491-37b6124ceb38,0ec4029d-904e-419a-8244-52e5a62d3675,,
49,150,condition1,,,True,,,,0.0-5.0-0.22,,,"['then', 'she', 'emerged', 'from', 'her']",,"['then', 'she', 'emerged', 'from', 'her']",,test,1791194,11.0,49,cloze,,e08884f0-14b4-49da-a491-37b6124ceb38,0ec4029d-904e-419a-8244-52e5a62d3675,,"then,she,emerged,from,her"
50,150,condition1,,,,,,,0.0-5.0-1.22,32.0,,,612.040000007255,,"<img src=""correct.png"" width=100</img><h2>Correct!</h2><h4>Your response was:</h4><p>then,she,emerged,from,her</p><h4>Here is the original sentence:</h4><p>The divine afflatus usually lasted a week or two, and then she emerged from her 'vortex', hungry, sleepy, cross, or despondent.</p><p style=""font-size:11px;"">(This sentence was scraped from a text from Project Gutenberg.)</p><p style=""font-size:11px;"">Press space to continue.</p>",fixation,1791808,,50,html-keyboard-response,,e08884f0-14b4-49da-a491-37b6124ceb38,0ec4029d-904e-419a-8244-52e5a62d3675,,
51,150,condition1,,,True,,,,0.0-5.0-0.23,,,"['we', 'were', 'slashed', 'around', 'from']",,"['we', 'were', 'slashed', 'around', 'from']",,test,1809550,12.0,51,cloze,,e08884f0-14b4-49da-a491-37b6124ceb38,0ec4029d-904e-419a-8244-52e5a62d3675,,"we,were,slashed,around,from"
52,150,condition1,,,,,,,0.0-5.0-1.23,32.0,,,863.2250000082422,,"<img src=""correct.png"" width=100</img><h2>Correct!</h2><h4>Your response was:</h4><p>we,were,slashed,around,from</p><h4>Here is the original sentence:</h4><p>With us, now twenty years after the close of the most stupendous war ever known, we have writers --who profess devotion to the nation--engaged in trying to prove that the Union forces were not victorious; practically, they say, we were slashed around from Donelson to Vicksburg and to Chattanooga; and in the East from Gettysburg to Appomattox, when the physical rebellion gave out from sheer exhaustion.</p><p style=""font-size:11px;"">(This sentence was scraped from a text from Project Gutenberg.)</p><p style=""font-size:11px;"">Press space to continue.</p>",fixation,1810415,,52,html-keyboard-response,,e08884f0-14b4-49da-a491-37b6124ceb38,0ec4029d-904e-419a-8244-52e5a62d3675,,
53,150,condition1,,,False,,,,0.0-5.0-0.24,,,"['and', 'were', 'generally', 'retained', 'with']",,"['and', 'were', 'retained', 'generally', 'with']",,test,1828582,12.0,53,cloze,,e08884f0-14b4-49da-a491-37b6124ceb38,0ec4029d-904e-419a-8244-52e5a62d3675,,"and,were,retained,generally,with"
54,150,condition1,,,,,,,0.0-5.0-1.24,32.0,,,595.9849999926519,,"<h2>Wrong.</h2><h4>Your response was:</h4><p>and,were,generally,retained,with</p><h4>Here is the correct answer and the original sentence:</h4><p>and,were,retained,generally,with</p><p>The North had a great number of educated and trained soldiers, but the bulk of them were still in the army and were retained, generally with their old commands and rank, until the war had lasted many months.</p><p style=""font-size:11px;"">(This sentence was scraped from a text from Project Gutenberg.)</p><p style=""font-size:11px;"">Press space to continue.</p>",fixation,1829180,,54,html-keyboard-response,,e08884f0-14b4-49da-a491-37b6124ceb38,0ec4029d-904e-419a-8244-52e5a62d3675,,
55,150,condition1,,,False,,,,0.0-5.0-0.25,,,"['remodeled', 'with', 'her', 'own', 'works']",,"['remodeled', 'her', 'own', 'works', 'with']",,test,1844630,12.0,55,cloze,,e08884f0-14b4-49da-a491-37b6124ceb38,0ec4029d-904e-419a-8244-52e5a62d3675,,"remodeled,her,own,works,with"
56,150,condition1,,,,,,,0.0-5.0-1.25,32.0,,,520.5900000000838,,"<h2>Wrong.</h2><h4>Your response was:</h4><p>remodeled,with,her,own,works</p><h4>Here is the correct answer and the original sentence:</h4><p>remodeled,her,own,works,with</p><p>Jo regarded them as worthy of Bacon, Milton, or Shakespeare, and remodeled her own works with good effect, she thought.</p><p style=""font-size:11px;"">(This sentence was scraped from a text from Project Gutenberg.)</p><p style=""font-size:11px;"">Press space to continue.</p>",fixation,1845153,,56,html-keyboard-response,,e08884f0-14b4-49da-a491-37b6124ceb38,0ec4029d-904e-419a-8244-52e5a62d3675,,
57,150,condition1,,,True,,,,0.0-5.0-0.26,,,"['on', 'hand', 'to', 'hear', 'every']",,"['on', 'hand', 'to', 'hear', 'every']",,test,1884967,13.0,57,cloze,,e08884f0-14b4-49da-a491-37b6124ceb38,0ec4029d-904e-419a-8244-52e5a62d3675,,"on,hand,to,hear,every"
58,150,condition1,,,,,,,0.0-5.0-1.26,32.0,,,423.19999999017455,,"<img src=""correct.png"" width=100</img><h2>Correct!</h2><h4>Your response was:</h4><p>on,hand,to,hear,every</p><h4>Here is the original sentence:</h4><p>Correspondents of the press were ever on hand to hear every word dropped, and were not always disposed to report correctly what did not confirm their preconceived notions, either about the conduct of the war or the individuals concerned in it.</p><p style=""font-size:11px;"">(This sentence was scraped from a text from Project Gutenberg.)</p><p style=""font-size:11px;"">Press space to continue.</p>",fixation,1885393,,58,html-keyboard-response,,e08884f0-14b4-49da-a491-37b6124ceb38,0ec4029d-904e-419a-8244-52e5a62d3675,,
59,150,condition1,,,True,,,,0.0-5.0-0.27,,,"['really', 'wondering', 'how', 'best', 'to']",,"['really', 'wondering', 'how', 'best', 'to']",,test,1899265,14.0,59,cloze,,e08884f0-14b4-49da-a491-37b6124ceb38,0ec4029d-904e-419a-8244-52e5a62d3675,,"really,wondering,how,best,to"
60,150,condition1,,,,,,,0.0-5.0-1.27,32.0,,,557.1200000122191,,"<img src=""correct.png"" width=100</img><h2>Correct!</h2><h4>Your response was:</h4><p>really,wondering,how,best,to</p><h4>Here is the original sentence:</h4><p>Jo skipped up, and sitting on the top step, affected to be searching for her book, but was really wondering how best to introduce the dangerous object of her visit.</p><p style=""font-size:11px;"">(This sentence was scraped from a text from Project Gutenberg.)</p><p style=""font-size:11px;"">Press space to continue.</p>",fixation,1899825,,60,html-keyboard-response,,e08884f0-14b4-49da-a491-37b6124ceb38,0ec4029d-904e-419a-8244-52e5a62d3675,,
61,150,condition1,,,False,,,,0.0-5.0-0.28,,,"['insatiated', 'and', 'in', 'insatiable', 'love']",,"['insatiated', 'and', 'insatiable', 'in', 'love']",,test,1913892,14.0,61,cloze,,e08884f0-14b4-49da-a491-37b6124ceb38,0ec4029d-904e-419a-8244-52e5a62d3675,,"insatiated,and,insatiable,in,love"
62,150,condition1,,,,,,,0.0-5.0-1.28,32.0,,,391.62999999825837,,"<h2>Wrong.</h2><h4>Your response was:</h4><p>insatiated,and,in,insatiable,love</p><h4>Here is the correct answer and the original sentence:</h4><p>insatiated,and,insatiable,in,love</p><p>Alas, he who knows the heart finds out how poor, helpless, pretentious, and blundering even the best and deepest love is--he finds that it rather DESTROYS than saves!--It is possible that under the holy fable and travesty of the life of Jesus there is hidden one of the most painful cases of the martyrdom of KNOWLEDGE ABOUT LOVE: the martyrdom of the most innocent and most craving heart, that never had enough of any human love, that DEMANDED love, that demanded inexorably and frantically to be loved and nothing else, with terrible outbursts against those who refused him their love; the story of a poor soul insatiated and insatiable in love, that had to invent hell to send thither those who WOULD NOT love him--and that at last, enlightened about human love, had to invent a God who is entire love, entire CAPACITY for love--who takes pity on human love, because it is so paltry, so ignorant!</p><p style=""font-size:11px;"">(This sentence was scraped from a text from Project Gutenberg.)</p><p style=""font-size:11px;"">Press space to continue.</p>",fixation,1914285,,62,html-keyboard-response,,e08884f0-14b4-49da-a491-37b6124ceb38,0ec4029d-904e-419a-8244-52e5a62d3675,,
63,150,condition1,,,False,,,,0.0-5.0-0.29,,,"['and', 'her', 'shadow', 'gave', 'up']",,"['shadow', 'and', 'gave', 'her', 'up']",,test,1928670,14.0,63,cloze,,e08884f0-14b4-49da-a491-37b6124ceb38,0ec4029d-904e-419a-8244-52e5a62d3675,,"shadow,and,gave,her,up"
64,150,condition1,,,,,,,0.0-5.0-1.29,32.0,,,4455.820000002859,,"<h2>Wrong.</h2><h4>Your response was:</h4><p>and,her,shadow,gave,up</p><h4>Here is the correct answer and the original sentence:</h4><p>shadow,and,gave,her,up</p><p>So the spring days came and went, the sky grew clearer, the earth greener, the flowers were up fairly early, and the birds came back in time to say goodbye to Beth, who, like a tired but trustful child, clung to the hands that had led her all her life, as Father and Mother guided her tenderly through the Valley of the Shadow, and gave her up to God.</p><p style=""font-size:11px;"">(This sentence was scraped from a text from Project Gutenberg.)</p><p style=""font-size:11px;"">Press space to continue.</p>",fixation,1933127,,64,html-keyboard-response,,e08884f0-14b4-49da-a491-37b6124ceb38,0ec4029d-904e-419a-8244-52e5a62d3675,,
65,150,condition1,,,,,,,0.0-6.0,32.0,,,5348.809999995865,,"<p>You responded correctly on 47% of the trials.</p><p>Despite this, we've decided to award you the bonus anyway. Congratulations!</p><img src='star.gif'></img><p>Press any key to continue. Thank you!</p>",,1938479,,65,html-keyboard-response,,e08884f0-14b4-49da-a491-37b6124ceb38,0ec4029d-904e-419a-8244-52e5a62d3675,,
66,150,condition1,23.0,,,Graduated College,Better than average experiment,Female,0.0-7.0,,English,,,,,,1964314,,66,cloze-blank,No,e08884f0-14b4-49da-a491-37b6124ceb38,0ec4029d-904e-419a-8244-52e5a62d3675,,
67,149,condition1,,,,,,,0.0-0.0,32.0,,,18121.4700000055,,"<p>University of California, Irvine Language Processing Group</p><p id=""legal"">By answering the following questions, you are participating in a study being performed by cognitive scientists in the University of California, Irvine Department of Language Science. If you have questions about this research, please contact Richard Futrell at rfutrell@uci.edu or Ryan Lee, at leerk3@uci.edu. You must be at least 18 years old to participate. Your participation in this research is voluntary. You may decline to answer any or all of the following questions. You may decline further participation, at any time, without adverse consequences. Your anonymity is assured; the researchers who have requested your participation will not receive any personal information about you.</p><p>Press spacebar to continue.</p>",,18126,,0,html-keyboard-response,,e08884f0-14b4-49da-a491-37b6124ceb38,0ef4fc5c-e6db-4a54-a107-d5182fea2631,,
68,149,condition1,,,,,,,0.0-1.0,32.0,,,5438.464999999269,,Welcome to the experiment. Press spacebar to begin.,,23565,,1,html-keyboard-response,,e08884f0-14b4-49da-a491-37b6124ceb38,0ef4fc5c-e6db-4a54-a107-d5182fea2631,,
69,149,condition1,,,,,,,0.0-2.0,32.0,,,93093.01000000414,,"<p>A five-word sequence taken from a sentence will be given to you in random order.</p><p>Your task is to rearrange the words to match the original order from which they came.</p><p>However, you will not be given the original sentence.</p><p>For example:</p><video width='852' height='480' controls><source src='first_example_3.mp4' type='video/mp4'></video><p>Press spacebar to continue with the instructions.</p>",,116664,,2,html-keyboard-response,,e08884f0-14b4-49da-a491-37b6124ceb38,0ef4fc5c-e6db-4a54-a107-d5182fea2631,,
70,149,condition1,,,,,,,0.0-3.0,32.0,,,120977.55499999765,,"<p>Note two things.</p><p>1. The five words may have been taken from any point within a sentence.</p><video width='852' height='480' controls><source src='note1_example_(quicker).mp4' type='video/mp4'></video><p>2. If you encounter multiple possibilities like this, just pick one order.</p><video width='852' height='480' controls><source src='note2_example_final.mp4' type='video/mp4'></video><p>You will be given the option to re-randomize the words and clear your input.</p><p>Press spacebar to continue.</p>",,237646,,3,html-keyboard-response,,e08884f0-14b4-49da-a491-37b6124ceb38,0ef4fc5c-e6db-4a54-a107-d5182fea2631,,
71,149,condition1,,,,,,,0.0-4.0,32.0,,,6110.599999999977,,"<p>If you successfully match the original order for all trials, you will receive a bonus.</p><p>Good luck!</p><p>Press spacebar to continue.</p>",,243757,,4,html-keyboard-response,,e08884f0-14b4-49da-a491-37b6124ceb38,0ef4fc5c-e6db-4a54-a107-d5182fea2631,,
72,149,condition1,,,True,,,,0.0-5.0-0.0,,,"['but', 'she', 'came', 'back', 'looking']",,"['but', 'she', 'came', 'back', 'looking']",,test,290395,1.0,5,cloze,,e08884f0-14b4-49da-a491-37b6124ceb38,0ef4fc5c-e6db-4a54-a107-d5182fea2631,,"but,she,came,back,looking"
73,149,condition1,,,,,,,0.0-5.0-1.0,32.0,,,8509.915000002366,,"<img src=""correct.png"" width=100</img><h2>Correct!</h2><h4>Your response was:</h4><p>but,she,came,back,looking</p><h4>Here is the original sentence:</h4><p>She went off to get her ball, and was a long time finding it among the bushes, but she came back, looking cool and quiet, and waited her turn patiently.</p><p style=""font-size:11px;"">(This sentence was scraped from a text from Project Gutenberg.)</p><p style=""font-size:11px;"">Press space to continue.</p>",fixation,298907,,6,html-keyboard-response,,e08884f0-14b4-49da-a491-37b6124ceb38,0ef4fc5c-e6db-4a54-a107-d5182fea2631,,
74,149,condition1,,,True,,,,0.0-5.0-0.1,,,"['the', 'enemy', 'on', 'the', 'top']",,"['the', 'enemy', 'on', 'the', 'top']",,test,339659,2.0,7,cloze,,e08884f0-14b4-49da-a491-37b6124ceb38,0ef4fc5c-e6db-4a54-a107-d5182fea2631,,"the,enemy,on,the,top"
75,149,condition1,,,,,,,0.0-5.0-1.1,32.0,,,2750.619999998889,,"<img src=""correct.png"" width=100</img><h2>Correct!</h2><h4>Your response was:</h4><p>the,enemy,on,the,top</p><h4>Here is the original sentence:</h4><p>The crossing had to be effected in full view of the enemy on the top of Lookout Mountain.</p><p style=""font-size:11px;"">(This sentence was scraped from a text from Project Gutenberg.)</p><p style=""font-size:11px;"">Press space to continue.</p>",fixation,342412,,8,html-keyboard-response,,e08884f0-14b4-49da-a491-37b6124ceb38,0ef4fc5c-e6db-4a54-a107-d5182fea2631,,
76,149,condition1,,,True,,,,0.0-5.0-0.2,,,"['sing', 'the', 'song', 'of', 'the']",,"['sing', 'the', 'song', 'of', 'the']",,test,397509,3.0,9,cloze,,e08884f0-14b4-49da-a491-37b6124ceb38,0ef4fc5c-e6db-4a54-a107-d5182fea2631,,"sing,the,song,of,the"
77,149,condition1,,,,,,,0.0-5.0-1.2,32.0,,,1827.7500000040163,,"<img src=""correct.png"" width=100</img><h2>Correct!</h2><h4>Your response was:</h4><p>sing,the,song,of,the</p><h4>Here is the original sentence:</h4><p>I'll try to sing the song of the shepherd boy which the Pilgrims heard.</p><p style=""font-size:11px;"">(This sentence was scraped from a text from Project Gutenberg.)</p><p style=""font-size:11px;"">Press space to continue.</p>",fixation,399339,,10,html-keyboard-response,,e08884f0-14b4-49da-a491-37b6124ceb38,0ef4fc5c-e6db-4a54-a107-d5182fea2631,,
78,149,condition1,,,True,,,,0.0-5.0-0.3,,,"['then', 'she', 'emerged', 'from', 'her']",,"['then', 'she', 'emerged', 'from', 'her']",,test,426001,4.0,11,cloze,,e08884f0-14b4-49da-a491-37b6124ceb38,0ef4fc5c-e6db-4a54-a107-d5182fea2631,,"then,she,emerged,from,her"
79,149,condition1,,,,,,,0.0-5.0-1.3,32.0,,,1579.6699999991688,,"<img src=""correct.png"" width=100</img><h2>Correct!</h2><h4>Your response was:</h4><p>then,she,emerged,from,her</p><h4>Here is the original sentence:</h4><p>The divine afflatus usually lasted a week or two, and then she emerged from her 'vortex', hungry, sleepy, cross, or despondent.</p><p style=""font-size:11px;"">(This sentence was scraped from a text from Project Gutenberg.)</p><p style=""font-size:11px;"">Press space to continue.</p>",fixation,427582,,12,html-keyboard-response,,e08884f0-14b4-49da-a491-37b6124ceb38,0ef4fc5c-e6db-4a54-a107-d5182fea2631,,
80,149,condition1,,,False,,,,0.0-5.0-0.4,,,"['of', 'which', 'narrow', 'walls', 'within']",,"['within', 'narrow', 'walls', 'of', 'which']",,test,485245,4.0,13,cloze,,e08884f0-14b4-49da-a491-37b6124ceb38,0ef4fc5c-e6db-4a54-a107-d5182fea2631,,"within,narrow,walls,of,which"
81,149,condition1,,,,,,,0.0-5.0-1.4,32.0,,,11199.805000003835,,"<h2>Wrong.</h2><h4>Your response was:</h4><p>of,which,narrow,walls,within</p><h4>Here is the correct answer and the original sentence:</h4><p>within,narrow,walls,of,which</p><p>Instead of being shut in within narrow walls, of which every nook and cranny could be explored, we find ourselves in an open world of free possibilities, where much remains unknown because there is so much to know.</p><p style=""font-size:11px;"">(This sentence was scraped from a text from Project Gutenberg.)</p><p style=""font-size:11px;"">Press space to continue.</p>",fixation,496447,,14,html-keyboard-response,,e08884f0-14b4-49da-a491-37b6124ceb38,0ef4fc5c-e6db-4a54-a107-d5182fea2631,,
82,149,condition1,,,False,,,,0.0-5.0-0.5,,,"['concentrated', 'enfolds', 'the', 'essence', 'of']",,"['enfolds', 'the', 'concentrated', 'essence', 'of']",,test,536006,4.0,15,cloze,,e08884f0-14b4-49da-a491-37b6124ceb38,0ef4fc5c-e6db-4a54-a107-d5182fea2631,,"enfolds,the,concentrated,essence,of"
83,149,condition1,,,,,,,0.0-5.0-1.5,32.0,,,8646.914999997476,,"<h2>Wrong.</h2><h4>Your response was:</h4><p>concentrated,enfolds,the,essence,of</p><h4>Here is the correct answer and the original sentence:</h4><p>enfolds,the,concentrated,essence,of</p><p>Each cover of a true book enfolds the concentrated essence of a man.</p><p style=""font-size:11px;"">(This sentence was scraped from a text from Project Gutenberg.)</p><p style=""font-size:11px;"">Press space to continue.</p>",fixation,544654,,16,html-keyboard-response,,e08884f0-14b4-49da-a491-37b6124ceb38,0ef4fc5c-e6db-4a54-a107-d5182fea2631,,
84,149,condition1,,,False,,,,0.0-5.0-0.6,,,"['but', 'popularize', 'for', 'his', 'subject']",,"['popularize', 'his', 'subject', 'but', 'for']",,test,783667,4.0,17,cloze,,e08884f0-14b4-49da-a491-37b6124ceb38,0ef4fc5c-e6db-4a54-a107-d5182fea2631,,"popularize,his,subject,but,for"
85,149,condition1,,,,,,,0.0-5.0-1.6,32.0,,,25017.120000004066,,"<h2>Wrong.</h2><h4>Your response was:</h4><p>but,popularize,for,his,subject</p><h4>Here is the correct answer and the original sentence:</h4><p>popularize,his,subject,but,for</p><p>His great ability as a phonetician (he was, I think, the best of them all at his job) would have entitled him to high official recognition, and perhaps enabled him to popularize his subject, but for his Satanic contempt for all academic dignitaries and persons in general who thought more of Greek than of phonetics.</p><p style=""font-size:11px;"">(This sentence was scraped from a text from Project Gutenberg.)</p><p style=""font-size:11px;"">Press space to continue.</p>",fixation,808686,,18,html-keyboard-response,,e08884f0-14b4-49da-a491-37b6124ceb38,0ef4fc5c-e6db-4a54-a107-d5182fea2631,,
86,149,condition1,,,False,,,,0.0-5.0-0.7,,,"['take', 'to', 'school', 'with', 'me']",,"['school', 'with', 'me', 'to', 'take']",,test,837643,4.0,19,cloze,,e08884f0-14b4-49da-a491-37b6124ceb38,0ef4fc5c-e6db-4a54-a107-d5182fea2631,,"school,with,me,to,take"
87,149,condition1,,,,,,,0.0-5.0-1.7,32.0,,,16261.859999998704,,"<h2>Wrong.</h2><h4>Your response was:</h4><p>take,to,school,with,me</p><h4>Here is the correct answer and the original sentence:</h4><p>school,with,me,to,take</p><p>I want to open a school for little lads--a good, happy, homelike school, with me to take care of them and Fritz to teach them.</p><p style=""font-size:11px;"">(This sentence was scraped from a text from Project Gutenberg.)</p><p style=""font-size:11px;"">Press space to continue.</p>",fixation,853907,,20,html-keyboard-response,,e08884f0-14b4-49da-a491-37b6124ceb38,0ef4fc5c-e6db-4a54-a107-d5182fea2631,,
88,149,condition1,,,True,,,,0.0-5.0-0.8,,,"['been', 'puzzling', 'concerning', 'the', 'kingdom']",,"['been', 'puzzling', 'concerning', 'the', 'kingdom']",,test,909057,5.0,21,cloze,,e08884f0-14b4-49da-a491-37b6124ceb38,0ef4fc5c-e6db-4a54-a107-d5182fea2631,,"been,puzzling,concerning,the,kingdom"
89,149,condition1,,,,,,,0.0-5.0-1.8,32.0,,,1864.3749999974386,,"<img src=""correct.png"" width=100</img><h2>Correct!</h2><h4>Your response was:</h4><p>been,puzzling,concerning,the,kingdom</p><h4>Here is the original sentence:</h4><p>""THE FAIRY BODY.--The normal working body of the gnome and fairy  is not of human nor of any other definite form, and herein lies  the explanation of much that has been puzzling concerning the  nature-spirit kingdom generally.</p><p style=""font-size:11px;"">(This sentence was scraped from a text from Project Gutenberg.)</p><p style=""font-size:11px;"">Press space to continue.</p>",fixation,910922,,22,html-keyboard-response,,e08884f0-14b4-49da-a491-37b6124ceb38,0ef4fc5c-e6db-4a54-a107-d5182fea2631,,
90,149,condition1,,,True,,,,0.0-5.0-0.9,,,"['send', 'them', 'believing', 'as', 'he']",,"['send', 'them', 'believing', 'as', 'he']",,test,1044601,6.0,23,cloze,,e08884f0-14b4-49da-a491-37b6124ceb38,0ef4fc5c-e6db-4a54-a107-d5182fea2631,,"send,them,believing,as,he"
91,149,condition1,,,,,,,0.0-5.0-1.9,32.0,,,2776.5849999997304,,"<img src=""correct.png"" width=100</img><h2>Correct!</h2><h4>Your response was:</h4><p>send,them,believing,as,he</p><h4>Here is the original sentence:</h4><p>Up to this time Beauregard, who had commanded south of Richmond, had received no reinforcements, except Hoke's division from Drury's Bluff,(*37) which had arrived on the morning of the 16th; though he had urged the authorities very strongly to send them, believing, as he did, that Petersburg would be a valuable prize which we might seek.</p><p style=""font-size:11px;"">(This sentence was scraped from a text from Project Gutenberg.)</p><p style=""font-size:11px;"">Press space to continue.</p>",fixation,1047379,,24,html-keyboard-response,,e08884f0-14b4-49da-a491-37b6124ceb38,0ef4fc5c-e6db-4a54-a107-d5182fea2631,,
92,149,condition1,,,True,,,,0.0-5.0-0.10,,,"['and', 'regarded', 'it', 'with', 'the']",,"['and', 'regarded', 'it', 'with', 'the']",,test,1111295,7.0,25,cloze,,e08884f0-14b4-49da-a491-37b6124ceb38,0ef4fc5c-e6db-4a54-a107-d5182fea2631,,"and,regarded,it,with,the"
93,149,condition1,,,,,,,0.0-5.0-1.10,32.0,,,1218.8500000047495,,"<img src=""correct.png"" width=100</img><h2>Correct!</h2><h4>Your response was:</h4><p>and,regarded,it,with,the</p><h4>Here is the original sentence:</h4><p>""  John laughed, and watched her for a minute, as she poised a pretty little preparation of lace and flowers on her hand, and regarded it with the genuine interest which his harangue had failed to waken.</p><p style=""font-size:11px;"">(This sentence was scraped from a text from Project Gutenberg.)</p><p style=""font-size:11px;"">Press space to continue.</p>",fixation,1112516,,26,html-keyboard-response,,e08884f0-14b4-49da-a491-37b6124ceb38,0ef4fc5c-e6db-4a54-a107-d5182fea2631,,
94,149,condition1,,,True,,,,0.0-5.0-0.11,,,"['taken', 'from', 'one', 'of', 'the']",,"['taken', 'from', 'one', 'of', 'the']",,test,1141553,8.0,27,cloze,,e08884f0-14b4-49da-a491-37b6124ceb38,0ef4fc5c-e6db-4a54-a107-d5182fea2631,,"taken,from,one,of,the"
95,149,condition1,,,,,,,0.0-5.0-1.11,32.0,,,928.9299999945796,,"<img src=""correct.png"" width=100</img><h2>Correct!</h2><h4>Your response was:</h4><p>taken,from,one,of,the</p><h4>Here is the original sentence:</h4><p>Esther fitted up the closet with a little table, placed a footstool before it, and over it a picture taken from one of the shut-up rooms.</p><p style=""font-size:11px;"">(This sentence was scraped from a text from Project Gutenberg.)</p><p style=""font-size:11px;"">Press space to continue.</p>",fixation,1142483,,28,html-keyboard-response,,e08884f0-14b4-49da-a491-37b6124ceb38,0ef4fc5c-e6db-4a54-a107-d5182fea2631,,
96,149,condition1,,,False,,,,0.0-5.0-0.12,,,"['come', 'to', 'see', 'him', 'harm']",,"['see', 'him', 'come', 'to', 'harm']",,test,1177534,8.0,29,cloze,,e08884f0-14b4-49da-a491-37b6124ceb38,0ef4fc5c-e6db-4a54-a107-d5182fea2631,,"see,him,come,to,harm"
97,149,condition1,,,,,,,0.0-5.0-1.12,32.0,,,4052.409999996424,,"<h2>Wrong.</h2><h4>Your response was:</h4><p>come,to,see,him,harm</p><h4>Here is the correct answer and the original sentence:</h4><p>see,him,come,to,harm</p><p>""I won't deny that I have a liking for Morris and would be sorry to see him come to harm.</p><p style=""font-size:11px;"">(This sentence was scraped from a text from Project Gutenberg.)</p><p style=""font-size:11px;"">Press space to continue.</p>",fixation,1181587,,30,html-keyboard-response,,e08884f0-14b4-49da-a491-37b6124ceb38,0ef4fc5c-e6db-4a54-a107-d5182fea2631,,
98,149,condition1,,,True,,,,0.0-5.0-0.13,,,"['such', 'bodies', 'do', 'not', 'cease']",,"['such', 'bodies', 'do', 'not', 'cease']",,test,1215116,9.0,31,cloze,,e08884f0-14b4-49da-a491-37b6124ceb38,0ef4fc5c-e6db-4a54-a107-d5182fea2631,,"such,bodies,do,not,cease"
99,149,condition1,,,,,,,0.0-5.0-1.13,32.0,,,1020.6350000009405,,"<img src=""correct.png"" width=100</img><h2>Correct!</h2><h4>Your response was:</h4><p>such,bodies,do,not,cease</p><h4>Here is the original sentence:</h4><p>If we are challenged as to why we believe that it will continue to rise as heretofore, we may appeal to the laws of motion: the earth, we shall say, is a freely rotating body, and such bodies do not cease to rotate unless something interferes from outside, and there is nothing outside to interfere with the earth between now and to-morrow.</p><p style=""font-size:11px;"">(This sentence was scraped from a text from Project Gutenberg.)</p><p style=""font-size:11px;"">Press space to continue.</p>",fixation,1216138,,32,html-keyboard-response,,e08884f0-14b4-49da-a491-37b6124ceb38,0ef4fc5c-e6db-4a54-a107-d5182fea2631,,
100,149,condition1,,,False,,,,0.0-5.0-0.14,,,"['tendering', 'to', 'take', 'my', 'resignation']",,"['tendering', 'my', 'resignation', 'to', 'take']",,test,1237853,9.0,33,cloze,,e08884f0-14b4-49da-a491-37b6124ceb38,0ef4fc5c-e6db-4a54-a107-d5182fea2631,,"tendering,my,resignation,to,take"
101,149,condition1,,,,,,,0.0-5.0-1.14,32.0,,,9587.029999995138,,"<h2>Wrong.</h2><h4>Your response was:</h4><p>tendering,to,take,my,resignation</p><h4>Here is the correct answer and the original sentence:</h4><p>tendering,my,resignation,to,take</p><p>I concluded, therefore, to resign, and in March applied for a leave of absence until the end of the July following, tendering my resignation to take effect at the end of that time.</p><p style=""font-size:11px;"">(This sentence was scraped from a text from Project Gutenberg.)</p><p style=""font-size:11px;"">Press space to continue.</p>",fixation,1247442,,34,html-keyboard-response,,e08884f0-14b4-49da-a491-37b6124ceb38,0ef4fc5c-e6db-4a54-a107-d5182fea2631,,
102,149,condition1,,,False,,,,0.0-5.0-0.15,,,"['part', 'of', 'it', 'is', 'margin']",,"['margin', 'is', 'part', 'of', 'it']",,test,1281736,9.0,35,cloze,,e08884f0-14b4-49da-a491-37b6124ceb38,0ef4fc5c-e6db-4a54-a107-d5182fea2631,,"margin,is,part,of,it"
103,149,condition1,,,,,,,0.0-5.0-1.15,32.0,,,6016.224999999163,,"<h2>Wrong.</h2><h4>Your response was:</h4><p>part,of,it,is,margin</p><h4>Here is the correct answer and the original sentence:</h4><p>margin,is,part,of,it</p><p>But this, at least, I have very clearly realised, that the ocean is there and that the margin is part of it, and that down that shelving shore the human race is destined to move slowly to deeper waters.</p><p style=""font-size:11px;"">(This sentence was scraped from a text from Project Gutenberg.)</p><p style=""font-size:11px;"">Press space to continue.</p>",fixation,1287754,,36,html-keyboard-response,,e08884f0-14b4-49da-a491-37b6124ceb38,0ef4fc5c-e6db-4a54-a107-d5182fea2631,,
104,149,condition1,,,False,,,,0.0-5.0-0.16,,,"['wear', 'the', 'decorations', 'no', 'longer']",,"['no', 'longer', 'wear', 'the', 'decorations']",,test,1337521,9.0,37,cloze,,e08884f0-14b4-49da-a491-37b6124ceb38,0ef4fc5c-e6db-4a54-a107-d5182fea2631,,"no,longer,wear,the,decorations"
105,149,condition1,,,,,,,0.0-5.0-1.16,32.0,,,8095.775000001537,,"<h2>Wrong.</h2><h4>Your response was:</h4><p>wear,the,decorations,no,longer</p><h4>Here is the correct answer and the original sentence:</h4><p>no,longer,wear,the,decorations</p><p>He declared he could no longer wear the decorations which he had received from the Sovereign of the Congo State.</p><p style=""font-size:11px;"">(This sentence was scraped from a text from Project Gutenberg.)</p><p style=""font-size:11px;"">Press space to continue.</p>",fixation,1345618,,38,html-keyboard-response,,e08884f0-14b4-49da-a491-37b6124ceb38,0ef4fc5c-e6db-4a54-a107-d5182fea2631,,
106,149,condition1,,,True,,,,0.0-5.0-0.17,,,"['appreciate', 'and', 'act', 'according', 'to']",,"['appreciate', 'and', 'act', 'according', 'to']",,test,1384145,10.0,39,cloze,,e08884f0-14b4-49da-a491-37b6124ceb38,0ef4fc5c-e6db-4a54-a107-d5182fea2631,,"appreciate,and,act,according,to"
107,149,condition1,,,,,,,0.0-5.0-1.17,32.0,,,867.135000000475,,"<img src=""correct.png"" width=100</img><h2>Correct!</h2><h4>Your response was:</h4><p>appreciate,and,act,according,to</p><h4>Here is the original sentence:</h4><p>The old theological problem of ""Faith"" and ""Knowledge,"" or more plainly, of instinct and reason--the question whether, in respect to the valuation of things, instinct deserves more authority than rationality, which wants to appreciate and act according to motives, according to a ""Why,"" that is to say, in conformity to purpose and utility--it is always the old moral problem that first appeared in the person of Socrates, and had divided men's minds long before Christianity.</p><p style=""font-size:11px;"">(This sentence was scraped from a text from Project Gutenberg.)</p><p style=""font-size:11px;"">Press space to continue.</p>",fixation,1385013,,40,html-keyboard-response,,e08884f0-14b4-49da-a491-37b6124ceb38,0ef4fc5c-e6db-4a54-a107-d5182fea2631,,
108,149,condition1,,,False,,,,0.0-5.0-0.18,,,"['their', 'men', 'led', 'in', 'generals']",,"['generals', 'led', 'their', 'men', 'in']",,test,1527484,10.0,41,cloze,,e08884f0-14b4-49da-a491-37b6124ceb38,0ef4fc5c-e6db-4a54-a107-d5182fea2631,,"generals,led,their,men,in"
109,149,condition1,,,,,,,0.0-5.0-1.18,32.0,,,7780.2200000006715,,"<h2>Wrong.</h2><h4>Your response was:</h4><p>their,men,led,in,generals</p><h4>Here is the correct answer and the original sentence:</h4><p>generals,led,their,men,in</p><p>The Confederate generals led their men in the repeated charges, and the loss among them was of unusual proportions.</p><p style=""font-size:11px;"">(This sentence was scraped from a text from Project Gutenberg.)</p><p style=""font-size:11px;"">Press space to continue.</p>",fixation,1535266,,42,html-keyboard-response,,e08884f0-14b4-49da-a491-37b6124ceb38,0ef4fc5c-e6db-4a54-a107-d5182fea2631,,
110,149,condition1,,,False,,,,0.0-5.0-0.19,,,"['with', 'the', 'right', 'to', 'my']",,"['to', 'the', 'right', 'with', 'my']",,test,1557771,10.0,43,cloze,,e08884f0-14b4-49da-a491-37b6124ceb38,0ef4fc5c-e6db-4a54-a107-d5182fea2631,,"to,the,right,with,my"
111,149,condition1,,,,,,,0.0-5.0-1.19,32.0,,,8207.575000000186,,"<h2>Wrong.</h2><h4>Your response was:</h4><p>with,the,right,to,my</p><h4>Here is the correct answer and the original sentence:</h4><p>to,the,right,with,my</p><p>This force, Tuttle's division, not returning I rode to the right with my staff, and soon found that the enemy had left that part of the line.</p><p style=""font-size:11px;"">(This sentence was scraped from a text from Project Gutenberg.)</p><p style=""font-size:11px;"">Press space to continue.</p>",fixation,1565980,,44,html-keyboard-response,,e08884f0-14b4-49da-a491-37b6124ceb38,0ef4fc5c-e6db-4a54-a107-d5182fea2631,,
112,149,condition1,,,True,,,,0.0-5.0-0.20,,,"['questions', 'and', 'answers', 'in', 'which']",,"['questions', 'and', 'answers', 'in', 'which']",,test,1651169,11.0,45,cloze,,e08884f0-14b4-49da-a491-37b6124ceb38,0ef4fc5c-e6db-4a54-a107-d5182fea2631,,"questions,and,answers,in,which"
113,149,condition1,,,,,,,0.0-5.0-1.20,32.0,,,1224.5649999969169,,"<img src=""correct.png"" width=100</img><h2>Correct!</h2><h4>Your response was:</h4><p>questions,and,answers,in,which</p><h4>Here is the original sentence:</h4><p>"" But this is a realm of questions and answers in which a more fastidious spirit does not like to stay: for here truth has to stifle her yawns so much when she is obliged to answer.</p><p style=""font-size:11px;"">(This sentence was scraped from a text from Project Gutenberg.)</p><p style=""font-size:11px;"">Press space to continue.</p>",fixation,1652395,,46,html-keyboard-response,,e08884f0-14b4-49da-a491-37b6124ceb38,0ef4fc5c-e6db-4a54-a107-d5182fea2631,,
114,149,condition1,,,False,,,,0.0-5.0-0.21,,,"['with', 'and', 'were', 'generally', 'retained']",,"['and', 'were', 'retained', 'generally', 'with']",,test,1700001,11.0,47,cloze,,e08884f0-14b4-49da-a491-37b6124ceb38,0ef4fc5c-e6db-4a54-a107-d5182fea2631,,"and,were,retained,generally,with"
115,149,condition1,,,,,,,0.0-5.0-1.21,32.0,,,9758.950000003211,,"<h2>Wrong.</h2><h4>Your response was:</h4><p>with,and,were,generally,retained</p><h4>Here is the correct answer and the original sentence:</h4><p>and,were,retained,generally,with</p><p>The North had a great number of educated and trained soldiers, but the bulk of them were still in the army and were retained, generally with their old commands and rank, until the war had lasted many months.</p><p style=""font-size:11px;"">(This sentence was scraped from a text from Project Gutenberg.)</p><p style=""font-size:11px;"">Press space to continue.</p>",fixation,1709761,,48,html-keyboard-response,,e08884f0-14b4-49da-a491-37b6124ceb38,0ef4fc5c-e6db-4a54-a107-d5182fea2631,,
116,149,condition1,,,True,,,,0.0-5.0-0.22,,,"['and', 'all', 'sat', 'looking', 'at']",,"['and', 'all', 'sat', 'looking', 'at']",,test,1779103,12.0,49,cloze,,e08884f0-14b4-49da-a491-37b6124ceb38,0ef4fc5c-e6db-4a54-a107-d5182fea2631,,"and,all,sat,looking,at"
117,149,condition1,,,,,,,0.0-5.0-1.22,32.0,,,1262.1900000011085,,"<img src=""correct.png"" width=100</img><h2>Correct!</h2><h4>Your response was:</h4><p>and,all,sat,looking,at</p><h4>Here is the original sentence:</h4><p>Presently Beth and Amy woke to rummage and find their little books also, one dove-colored, the other blue, and all sat looking at and talking about them, while the east grew rosy with the coming day.</p><p style=""font-size:11px;"">(This sentence was scraped from a text from Project Gutenberg.)</p><p style=""font-size:11px;"">Press space to continue.</p>",fixation,1780366,,50,html-keyboard-response,,e08884f0-14b4-49da-a491-37b6124ceb38,0ef4fc5c-e6db-4a54-a107-d5182fea2631,,
118,149,condition1,,,False,,,,0.0-5.0-0.23,,,"['in', 'the', 'same', 'intimacy', 'again']",,"['again', 'in', 'the', 'same', 'intimacy']",,test,1863308,12.0,51,cloze,,e08884f0-14b4-49da-a491-37b6124ceb38,0ef4fc5c-e6db-4a54-a107-d5182fea2631,,"again,in,the,same,intimacy"
119,149,condition1,,,,,,,0.0-5.0-1.23,32.0,,,6329.165000002831,,"<h2>Wrong.</h2><h4>Your response was:</h4><p>in,the,same,intimacy,again</p><h4>Here is the correct answer and the original sentence:</h4><p>again,in,the,same,intimacy</p><p>Our friendship cannot be impaired by it, and in happier times, when your situation is as independent as mine, it will unite us again in the same intimacy as ever.</p><p style=""font-size:11px;"">(This sentence was scraped from a text from Project Gutenberg.)</p><p style=""font-size:11px;"">Press space to continue.</p>",fixation,1869638,,52,html-keyboard-response,,e08884f0-14b4-49da-a491-37b6124ceb38,0ef4fc5c-e6db-4a54-a107-d5182fea2631,,
120,149,condition1,,,False,,,,0.0-5.0-0.24,,,"['we', 'were', 'slashed', 'from', 'around']",,"['we', 'were', 'slashed', 'around', 'from']",,test,2066862,12.0,53,cloze,,e08884f0-14b4-49da-a491-37b6124ceb38,0ef4fc5c-e6db-4a54-a107-d5182fea2631,,"we,were,slashed,around,from"
121,149,condition1,,,,,,,0.0-5.0-1.24,32.0,,,6029.224999998463,,"<h2>Wrong.</h2><h4>Your response was:</h4><p>we,were,slashed,from,around</p><h4>Here is the correct answer and the original sentence:</h4><p>we,were,slashed,around,from</p><p>With us, now twenty years after the close of the most stupendous war ever known, we have writers --who profess devotion to the nation--engaged in trying to prove that the Union forces were not victorious; practically, they say, we were slashed around from Donelson to Vicksburg and to Chattanooga; and in the East from Gettysburg to Appomattox, when the physical rebellion gave out from sheer exhaustion.</p><p style=""font-size:11px;"">(This sentence was scraped from a text from Project Gutenberg.)</p><p style=""font-size:11px;"">Press space to continue.</p>",fixation,2072893,,54,html-keyboard-response,,e08884f0-14b4-49da-a491-37b6124ceb38,0ef4fc5c-e6db-4a54-a107-d5182fea2631,,
122,149,condition1,,,False,,,,0.0-5.0-0.25,,,"['entitled', 'to', 'consideration', 'of', 'best']",,"['best', 'entitled', 'to', 'consideration', 'of']",,test,2243621,12.0,55,cloze,,e08884f0-14b4-49da-a491-37b6124ceb38,0ef4fc5c-e6db-4a54-a107-d5182fea2631,,"best,entitled,to,consideration,of"
123,149,condition1,,,,,,,0.0-5.0-1.25,32.0,,,25722.869999997783,,"<h2>Wrong.</h2><h4>Your response was:</h4><p>entitled,to,consideration,of,best</p><h4>Here is the correct answer and the original sentence:</h4><p>best,entitled,to,consideration,of</p><p>They supposed that it would naturally follow the freedom of the negro, but that there would be a time of probation, in which the ex-slaves could prepare themselves for the privileges of citizenship before the full right would be conferred; but Mr. Johnson, after a complete revolution of sentiment, seemed to regard the South not only as an oppressed people, but as the people best entitled to consideration of any of our citizens.</p><p style=""font-size:11px;"">(This sentence was scraped from a text from Project Gutenberg.)</p><p style=""font-size:11px;"">Press space to continue.</p>",fixation,2269345,,56,html-keyboard-response,,e08884f0-14b4-49da-a491-37b6124ceb38,0ef4fc5c-e6db-4a54-a107-d5182fea2631,,
124,149,condition1,,,False,,,,0.0-5.0-0.26,,,"['with', 'her', 'own', 'remodeled', 'works']",,"['remodeled', 'her', 'own', 'works', 'with']",,test,2290408,12.0,57,cloze,,e08884f0-14b4-49da-a491-37b6124ceb38,0ef4fc5c-e6db-4a54-a107-d5182fea2631,,"remodeled,her,own,works,with"
125,149,condition1,,,,,,,0.0-5.0-1.26,32.0,,,11028.359999996608,,"<h2>Wrong.</h2><h4>Your response was:</h4><p>with,her,own,remodeled,works</p><h4>Here is the correct answer and the original sentence:</h4><p>remodeled,her,own,works,with</p><p>Jo regarded them as worthy of Bacon, Milton, or Shakespeare, and remodeled her own works with good effect, she thought.</p><p style=""font-size:11px;"">(This sentence was scraped from a text from Project Gutenberg.)</p><p style=""font-size:11px;"">Press space to continue.</p>",fixation,2301437,,58,html-keyboard-response,,e08884f0-14b4-49da-a491-37b6124ceb38,0ef4fc5c-e6db-4a54-a107-d5182fea2631,,
126,149,condition1,,,False,,,,0.0-5.0-0.27,,,"['script', 'really', 'is', 'a', 'combination']",,"['script', 'is', 'really', 'a', 'combination']",,test,2389901,12.0,59,cloze,,e08884f0-14b4-49da-a491-37b6124ceb38,0ef4fc5c-e6db-4a54-a107-d5182fea2631,,"script,is,really,a,combination"
127,149,condition1,,,,,,,0.0-5.0-1.27,32.0,,,5852.854999997652,,"<h2>Wrong.</h2><h4>Your response was:</h4><p>script,really,is,a,combination</p><h4>Here is the correct answer and the original sentence:</h4><p>script,is,really,a,combination</p><p>As the Ogham script is really a combination of straight lines, the latter case may be taken with considerable reserve.</p><p style=""font-size:11px;"">(This sentence was scraped from a text from Project Gutenberg.)</p><p style=""font-size:11px;"">Press space to continue.</p>",fixation,2395755,,60,html-keyboard-response,,e08884f0-14b4-49da-a491-37b6124ceb38,0ef4fc5c-e6db-4a54-a107-d5182fea2631,,
128,149,condition1,,,False,,,,0.0-5.0-0.28,,,"['and', 'the', 'company', 'was', 'raised']",,"['company', 'was', 'raised', 'and', 'the']",,test,2516056,12.0,61,cloze,,e08884f0-14b4-49da-a491-37b6124ceb38,0ef4fc5c-e6db-4a54-a107-d5182fea2631,,"company,was,raised,and,the"
129,149,condition1,,,,,,,0.0-5.0-1.28,32.0,,,7694.3249999969275,,"<h2>Wrong.</h2><h4>Your response was:</h4><p>and,the,company,was,raised</p><h4>Here is the correct answer and the original sentence:</h4><p>company,was,raised,and,the</p><p>The company was raised and the officers and non-commissioned officers elected before the meeting adjourned.</p><p style=""font-size:11px;"">(This sentence was scraped from a text from Project Gutenberg.)</p><p style=""font-size:11px;"">Press space to continue.</p>",fixation,2523751,,62,html-keyboard-response,,e08884f0-14b4-49da-a491-37b6124ceb38,0ef4fc5c-e6db-4a54-a107-d5182fea2631,,
130,149,condition1,,,False,,,,0.0-5.0-0.29,,,"['mediums', 'have', 'been', 'injured', 'badly']",,"['mediums', 'have', 'been', 'badly', 'injured']",,test,2574614,12.0,63,cloze,,e08884f0-14b4-49da-a491-37b6124ceb38,0ef4fc5c-e6db-4a54-a107-d5182fea2631,,"mediums,have,been,badly,injured"
131,149,condition1,,,,,,,0.0-5.0-1.29,32.0,,,6353.960000000428,,"<h2>Wrong.</h2><h4>Your response was:</h4><p>mediums,have,been,injured,badly</p><h4>Here is the correct answer and the original sentence:</h4><p>mediums,have,been,badly,injured</p><p>When still attached to the medium the ectoplasm flies back with great force on exposure to light, and, in spite of the laughter of the scoffers, there is none the less good evidence that several mediums have been badly injured by the recoil after a light has suddenly been struck by some amateur detective.</p><p style=""font-size:11px;"">(This sentence was scraped from a text from Project Gutenberg.)</p><p style=""font-size:11px;"">Press space to continue.</p>",fixation,2580969,,64,html-keyboard-response,,e08884f0-14b4-49da-a491-37b6124ceb38,0ef4fc5c-e6db-4a54-a107-d5182fea2631,,
132,149,condition1,,,,,,,0.0-6.0,32.0,,,8606.615000003949,,"<p>You responded correctly on 40% of the trials.</p><p>Despite this, we've decided to award you the bonus anyway. Congratulations!</p><img src='star.gif'></img><p>Press any key to continue. Thank you!</p>",,2589577,,65,html-keyboard-response,,e08884f0-14b4-49da-a491-37b6124ceb38,0ef4fc5c-e6db-4a54-a107-d5182fea2631,,
133,149,condition1,30.0,,,Hold a higher degree,Worse than the average experiment,Female,0.0-7.0,,English,,,,,,2657491,,66,cloze-blank,Yes,e08884f0-14b4-49da-a491-37b6124ceb38,0ef4fc5c-e6db-4a54-a107-d5182fea2631,,
134,143,condition1,,,,,,,0.0-0.0,32.0,,,2719.5850000716746,,"<p>University of California, Irvine Language Processing Group</p><p id=""legal"">By answering the following questions, you are participating in a study being performed by cognitive scientists in the University of California, Irvine Department of Language Science. If you have questions about this research, please contact Richard Futrell at rfutrell@uci.edu or Ryan Lee, at leerk3@uci.edu. You must be at least 18 years old to participate. Your participation in this research is voluntary. You may decline to answer any or all of the following questions. You may decline further participation, at any time, without adverse consequences. Your anonymity is assured; the researchers who have requested your participation will not receive any personal information about you.</p><p>Press spacebar to continue.</p>",,2721,,0,html-keyboard-response,,e08884f0-14b4-49da-a491-37b6124ceb38,133f85ab-7d68-4766-a2f8-1bd4c06dd832,,
135,143,condition1,,,,,,,0.0-1.0,32.0,,,1497.4600002169611,,Welcome to the experiment. Press spacebar to begin.,,4219,,1,html-keyboard-response,,e08884f0-14b4-49da-a491-37b6124ceb38,133f85ab-7d68-4766-a2f8-1bd4c06dd832,,
136,143,condition1,,,,,,,0.0-2.0,32.0,,,31026.46000031382,,"<p>A five-word sequence taken from a sentence will be given to you in random order.</p><p>Your task is to rearrange the words to match the original order from which they came.</p><p>However, you will not be given the original sentence.</p><p>For example:</p><video width='852' height='480' controls><source src='first_example_3.mp4' type='video/mp4'></video><p>Press spacebar to continue with the instructions.</p>",,35248,,2,html-keyboard-response,,e08884f0-14b4-49da-a491-37b6124ceb38,133f85ab-7d68-4766-a2f8-1bd4c06dd832,,
137,143,condition1,,,,,,,0.0-3.0,32.0,,,64289.10000016912,,"<p>Note two things.</p><p>1. The five words may have been taken from any point within a sentence.</p><video width='852' height='480' controls><source src='note1_example_(quicker).mp4' type='video/mp4'></video><p>2. If you encounter multiple possibilities like this, just pick one order.</p><video width='852' height='480' controls><source src='note2_example_final.mp4' type='video/mp4'></video><p>You will be given the option to re-randomize the words and clear your input.</p><p>Press spacebar to continue.</p>",,99592,,3,html-keyboard-response,,e08884f0-14b4-49da-a491-37b6124ceb38,133f85ab-7d68-4766-a2f8-1bd4c06dd832,,
138,143,condition1,,,,,,,0.0-4.0,32.0,,,5565.1899999938905,,"<p>If you successfully match the original order for all trials, you will receive a bonus.</p><p>Good luck!</p><p>Press spacebar to continue.</p>",,105159,,4,html-keyboard-response,,e08884f0-14b4-49da-a491-37b6124ceb38,133f85ab-7d68-4766-a2f8-1bd4c06dd832,,
139,143,condition1,,,False,,,,0.0-5.0-0.0,,,"['she', 'came', 'looking', 'back', 'but']",,"['but', 'she', 'came', 'back', 'looking']",,test,137538,0.0,5,cloze,,e08884f0-14b4-49da-a491-37b6124ceb38,133f85ab-7d68-4766-a2f8-1bd4c06dd832,,"but,she,came,back,looking"
140,143,condition1,,,,,,,0.0-5.0-1.0,32.0,,,9803.489999845624,,"<h2>Wrong.</h2><h4>Your response was:</h4><p>she,came,looking,back,but</p><h4>Here is the correct answer and the original sentence:</h4><p>but,she,came,back,looking</p><p>She went off to get her ball, and was a long time finding it among the bushes, but she came back, looking cool and quiet, and waited her turn patiently.</p><p style=""font-size:11px;"">(This sentence was scraped from a text from Project Gutenberg.)</p><p style=""font-size:11px;"">Press space to continue.</p>",fixation,147344,,6,html-keyboard-response,,e08884f0-14b4-49da-a491-37b6124ceb38,133f85ab-7d68-4766-a2f8-1bd4c06dd832,,
141,143,condition1,,,True,,,,0.0-5.0-0.1,,,"['tell', 'me', 'about', 'its', 'cause']",,"['tell', 'me', 'about', 'its', 'cause']",,test,179104,1.0,7,cloze,,e08884f0-14b4-49da-a491-37b6124ceb38,133f85ab-7d68-4766-a2f8-1bd4c06dd832,,"tell,me,about,its,cause"
142,143,condition1,,,,,,,0.0-5.0-1.1,32.0,,,4301.10999988392,,"<img src=""correct.png"" width=100</img><h2>Correct!</h2><h4>Your response was:</h4><p>tell,me,about,its,cause</p><h4>Here is the original sentence:</h4><p>I may be acquainted, for example, with my toothache, and this knowledge may be as complete as knowledge by acquaintance ever can be, without knowing all that the dentist (who is not acquainted with it) can tell me about its cause, and without therefore knowing its 'nature' in the above sense.</p><p style=""font-size:11px;"">(This sentence was scraped from a text from Project Gutenberg.)</p><p style=""font-size:11px;"">Press space to continue.</p>",fixation,183406,,8,html-keyboard-response,,e08884f0-14b4-49da-a491-37b6124ceb38,133f85ab-7d68-4766-a2f8-1bd4c06dd832,,
143,143,condition1,,,False,,,,0.0-5.0-0.2,,,"['the', 'road', 'was', 'cleared', 'somewhat']",,"['the', 'road', 'was', 'somewhat', 'cleared']",,test,198347,1.0,9,cloze,,e08884f0-14b4-49da-a491-37b6124ceb38,133f85ab-7d68-4766-a2f8-1bd4c06dd832,,"the,road,was,somewhat,cleared"
144,143,condition1,,,,,,,0.0-5.0-1.2,32.0,,,2182.3149998672307,,"<h2>Wrong.</h2><h4>Your response was:</h4><p>the,road,was,cleared,somewhat</p><h4>Here is the correct answer and the original sentence:</h4><p>the,road,was,somewhat,cleared</p><p>The road was somewhat cleared for them by the gunboats.</p><p style=""font-size:11px;"">(This sentence was scraped from a text from Project Gutenberg.)</p><p style=""font-size:11px;"">Press space to continue.</p>",fixation,200530,,10,html-keyboard-response,,e08884f0-14b4-49da-a491-37b6124ceb38,133f85ab-7d68-4766-a2f8-1bd4c06dd832,,
145,143,condition1,,,False,,,,0.0-5.0-0.3,,,"['went', 'to', 'take', 'the', 'daughter']",,"['the', 'daughter', 'went', 'to', 'take']",,test,218726,1.0,11,cloze,,e08884f0-14b4-49da-a491-37b6124ceb38,133f85ab-7d68-4766-a2f8-1bd4c06dd832,,"the,daughter,went,to,take"
146,143,condition1,,,,,,,0.0-5.0-1.3,32.0,,,2258.840000256896,,"<h2>Wrong.</h2><h4>Your response was:</h4><p>went,to,take,the,daughter</p><h4>Here is the correct answer and the original sentence:</h4><p>the,daughter,went,to,take</p><p>But she begged so hard, and Sallie had promised to take good care of her, and a little pleasure seemed so delightful after a winter of irksome work that the mother yielded, and the daughter went to take her first taste of fashionable life.</p><p style=""font-size:11px;"">(This sentence was scraped from a text from Project Gutenberg.)</p><p style=""font-size:11px;"">Press space to continue.</p>",fixation,220986,,12,html-keyboard-response,,e08884f0-14b4-49da-a491-37b6124ceb38,133f85ab-7d68-4766-a2f8-1bd4c06dd832,,
147,143,condition1,,,False,,,,0.0-5.0-0.4,,,"['their', 'men', 'led', 'in', 'generals']",,"['generals', 'led', 'their', 'men', 'in']",,test,239028,1.0,13,cloze,,e08884f0-14b4-49da-a491-37b6124ceb38,133f85ab-7d68-4766-a2f8-1bd4c06dd832,,"generals,led,their,men,in"
148,143,condition1,,,,,,,0.0-5.0-1.4,32.0,,,1537.949999794364,,"<h2>Wrong.</h2><h4>Your response was:</h4><p>their,men,led,in,generals</p><h4>Here is the correct answer and the original sentence:</h4><p>generals,led,their,men,in</p><p>The Confederate generals led their men in the repeated charges, and the loss among them was of unusual proportions.</p><p style=""font-size:11px;"">(This sentence was scraped from a text from Project Gutenberg.)</p><p style=""font-size:11px;"">Press space to continue.</p>",fixation,240569,,14,html-keyboard-response,,e08884f0-14b4-49da-a491-37b6124ceb38,133f85ab-7d68-4766-a2f8-1bd4c06dd832,,
149,143,condition1,,,False,,,,0.0-5.0-0.5,,,"['who', 'is', 'only', 'recognizes', 'one']",,"['is', 'one', 'who', 'recognizes', 'only']",,test,277012,1.0,15,cloze,,e08884f0-14b4-49da-a491-37b6124ceb38,133f85ab-7d68-4766-a2f8-1bd4c06dd832,,"is,one,who,recognizes,only"
150,143,condition1,,,,,,,0.0-5.0-1.5,32.0,,,2183.6500000208616,,"<h2>Wrong.</h2><h4>Your response was:</h4><p>who,is,only,recognizes,one</p><h4>Here is the correct answer and the original sentence:</h4><p>is,one,who,recognizes,only</p><p>The 'practical' man, as this word is often used, is one who recognizes only material needs, who realizes that men must have food for the body, but is oblivious of the necessity of providing food for the mind.</p><p style=""font-size:11px;"">(This sentence was scraped from a text from Project Gutenberg.)</p><p style=""font-size:11px;"">Press space to continue.</p>",fixation,279196,,16,html-keyboard-response,,e08884f0-14b4-49da-a491-37b6124ceb38,133f85ab-7d68-4766-a2f8-1bd4c06dd832,,
151,143,condition1,,,False,,,,0.0-5.0-0.6,,,"['the', 'defences', 'were', 'the', 'of']",,"['were', 'the', 'defences', 'of', 'the']",,test,299213,1.0,17,cloze,,e08884f0-14b4-49da-a491-37b6124ceb38,133f85ab-7d68-4766-a2f8-1bd4c06dd832,,"were,the,defences,of,the"
152,143,condition1,,,,,,,0.0-5.0-1.6,32.0,,,1304.20000012964,,"<h2>Wrong.</h2><h4>Your response was:</h4><p>the,defences,were,the,of</p><h4>Here is the correct answer and the original sentence:</h4><p>were,the,defences,of,the</p><p>Such were the defences of the City of Mexico in September, 1847, on the routes over which General Scott entered.</p><p style=""font-size:11px;"">(This sentence was scraped from a text from Project Gutenberg.)</p><p style=""font-size:11px;"">Press space to continue.</p>",fixation,300518,,18,html-keyboard-response,,e08884f0-14b4-49da-a491-37b6124ceb38,133f85ab-7d68-4766-a2f8-1bd4c06dd832,,
153,143,condition1,,,False,,,,0.0-5.0-0.7,,,"['he', 'wanted', 'me', 'and', 'was']",,"['wanted', 'me', 'and', 'he', 'was']",,test,313269,1.0,19,cloze,,e08884f0-14b4-49da-a491-37b6124ceb38,133f85ab-7d68-4766-a2f8-1bd4c06dd832,,"wanted,me,and,he,was"
154,143,condition1,,,,,,,0.0-5.0-1.7,32.0,,,1332.5149999000132,,"<h2>Wrong.</h2><h4>Your response was:</h4><p>he,wanted,me,and,was</p><h4>Here is the correct answer and the original sentence:</h4><p>wanted,me,and,he,was</p><p>Mr. Heathcliff did not explain his reasons for taking a new mind about my coming here; he only told me he wanted me, and he was tired of seeing Catherine: I must make the little parlour my sitting-room, and keep her with me.</p><p style=""font-size:11px;"">(This sentence was scraped from a text from Project Gutenberg.)</p><p style=""font-size:11px;"">Press space to continue.</p>",fixation,314602,,20,html-keyboard-response,,e08884f0-14b4-49da-a491-37b6124ceb38,133f85ab-7d68-4766-a2f8-1bd4c06dd832,,
155,143,condition1,,,False,,,,0.0-5.0-0.8,,,"['on', 'every', 'hand', 'to', 'hear']",,"['on', 'hand', 'to', 'hear', 'every']",,test,327373,1.0,21,cloze,,e08884f0-14b4-49da-a491-37b6124ceb38,133f85ab-7d68-4766-a2f8-1bd4c06dd832,,"on,hand,to,hear,every"
156,143,condition1,,,,,,,0.0-5.0-1.8,32.0,,,4211.239999625832,,"<h2>Wrong.</h2><h4>Your response was:</h4><p>on,every,hand,to,hear</p><h4>Here is the correct answer and the original sentence:</h4><p>on,hand,to,hear,every</p><p>Correspondents of the press were ever on hand to hear every word dropped, and were not always disposed to report correctly what did not confirm their preconceived notions, either about the conduct of the war or the individuals concerned in it.</p><p style=""font-size:11px;"">(This sentence was scraped from a text from Project Gutenberg.)</p><p style=""font-size:11px;"">Press space to continue.</p>",fixation,331585,,22,html-keyboard-response,,e08884f0-14b4-49da-a491-37b6124ceb38,133f85ab-7d68-4766-a2f8-1bd4c06dd832,,
157,143,condition1,,,False,,,,0.0-5.0-0.9,,,"['were', 'you', 'present', 'tell', 'me']",,"['present', 'tell', 'me', 'were', 'you']",,test,343954,1.0,23,cloze,,e08884f0-14b4-49da-a491-37b6124ceb38,133f85ab-7d68-4766-a2f8-1bd4c06dd832,,"present,tell,me,were,you"
158,143,condition1,,,,,,,0.0-5.0-1.9,32.0,,,1127.4850000627341,,"<h2>Wrong.</h2><h4>Your response was:</h4><p>were,you,present,tell,me</p><h4>Here is the correct answer and the original sentence:</h4><p>present,tell,me,were,you</p><p>But never mind Linton at present: tell me, were you not with Heathcliff last night?</p><p style=""font-size:11px;"">(This sentence was scraped from a text from Project Gutenberg.)</p><p style=""font-size:11px;"">Press space to continue.</p>",fixation,345083,,24,html-keyboard-response,,e08884f0-14b4-49da-a491-37b6124ceb38,133f85ab-7d68-4766-a2f8-1bd4c06dd832,,
159,143,condition1,,,True,,,,0.0-5.0-0.10,,,"['by', 'dismissing', 'him', 'at', 'once']",,"['by', 'dismissing', 'him', 'at', 'once']",,test,361127,2.0,25,cloze,,e08884f0-14b4-49da-a491-37b6124ceb38,133f85ab-7d68-4766-a2f8-1bd4c06dd832,,"by,dismissing,him,at,once"
160,143,condition1,,,,,,,0.0-5.0-1.10,32.0,,,1298.820000141859,,"<img src=""correct.png"" width=100</img><h2>Correct!</h2><h4>Your response was:</h4><p>by,dismissing,him,at,once</p><h4>Here is the original sentence:</h4><p>Humbled as he now is, I cannot forgive him such an instance of pride, and am doubtful whether I ought not to punish him by dismissing him at once after this reconciliation, or by marrying and teazing him for ever.</p><p style=""font-size:11px;"">(This sentence was scraped from a text from Project Gutenberg.)</p><p style=""font-size:11px;"">Press space to continue.</p>",fixation,362427,,26,html-keyboard-response,,e08884f0-14b4-49da-a491-37b6124ceb38,133f85ab-7d68-4766-a2f8-1bd4c06dd832,,
161,143,condition1,,,False,,,,0.0-5.0-0.11,,,"['several', 'and', 'the', 'chief', 'were']",,"['the', 'chief', 'and', 'several', 'were']",,test,405486,2.0,27,cloze,,e08884f0-14b4-49da-a491-37b6124ceb38,133f85ab-7d68-4766-a2f8-1bd4c06dd832,,"the,chief,and,several,were"
162,143,condition1,,,,,,,0.0-5.0-1.11,32.0,,,3312.764999922365,,"<h2>Wrong.</h2><h4>Your response was:</h4><p>several,and,the,chief,were</p><h4>Here is the correct answer and the original sentence:</h4><p>the,chief,and,several,were</p><p>This being refused by Congress, the President asked legislative authority to place a junior over a senior of the same grade, with the view of appointing Benton to the rank of major-general and then placing him in command of the army, but Congress failed to accede to this proposition as well, and Scott remained in command: but every general appointed to serve under him was politically opposed to the chief, and several were personally hostile.</p><p style=""font-size:11px;"">(This sentence was scraped from a text from Project Gutenberg.)</p><p style=""font-size:11px;"">Press space to continue.</p>",fixation,408800,,28,html-keyboard-response,,e08884f0-14b4-49da-a491-37b6124ceb38,133f85ab-7d68-4766-a2f8-1bd4c06dd832,,
163,143,condition1,,,False,,,,0.0-5.0-0.12,,,"['about', 'divided', 'equally', 'in', 'population']",,"['about', 'equally', 'divided', 'in', 'population']",,test,438420,2.0,29,cloze,,e08884f0-14b4-49da-a491-37b6124ceb38,133f85ab-7d68-4766-a2f8-1bd4c06dd832,,"about,equally,divided,in,population"
164,143,condition1,,,,,,,0.0-5.0-1.12,32.0,,,1017.2050003893672,,"<h2>Wrong.</h2><h4>Your response was:</h4><p>about,divided,equally,in,population</p><h4>Here is the correct answer and the original sentence:</h4><p>about,equally,divided,in,population</p><p>San Antonio was about equally divided in population between Americans and Mexicans.</p><p style=""font-size:11px;"">(This sentence was scraped from a text from Project Gutenberg.)</p><p style=""font-size:11px;"">Press space to continue.</p>",fixation,439438,,30,html-keyboard-response,,e08884f0-14b4-49da-a491-37b6124ceb38,133f85ab-7d68-4766-a2f8-1bd4c06dd832,,
165,143,condition1,,,True,,,,0.0-5.0-0.13,,,"['doing', 'nothing', 'except', 'singing', 'old']",,"['doing', 'nothing', 'except', 'singing', 'old']",,test,469190,3.0,31,cloze,,e08884f0-14b4-49da-a491-37b6124ceb38,133f85ab-7d68-4766-a2f8-1bd4c06dd832,,"doing,nothing,except,singing,old"
166,143,condition1,,,,,,,0.0-5.0-1.13,32.0,,,6788.459999952464,,"<img src=""correct.png"" width=100</img><h2>Correct!</h2><h4>Your response was:</h4><p>doing,nothing,except,singing,old</p><h4>Here is the original sentence:</h4><p>From dinner to tea she would lie in her breeze-rocked cradle, doing nothing except singing old songs--my nursery lore--to herself, or watching the birds, joint tenants, feed and entice their young ones to fly: or nestling with closed lids, half thinking, half dreaming, happier than words can express.</p><p style=""font-size:11px;"">(This sentence was scraped from a text from Project Gutenberg.)</p><p style=""font-size:11px;"">Press space to continue.</p>",fixation,475980,,32,html-keyboard-response,,e08884f0-14b4-49da-a491-37b6124ceb38,133f85ab-7d68-4766-a2f8-1bd4c06dd832,,
167,143,condition1,,,False,,,,0.0-5.0-0.14,,,"['and', 'the', 'company', 'was', 'raised']",,"['company', 'was', 'raised', 'and', 'the']",,test,498082,3.0,33,cloze,,e08884f0-14b4-49da-a491-37b6124ceb38,133f85ab-7d68-4766-a2f8-1bd4c06dd832,,"company,was,raised,and,the"
168,143,condition1,,,,,,,0.0-5.0-1.14,32.0,,,1297.374999616295,,"<h2>Wrong.</h2><h4>Your response was:</h4><p>and,the,company,was,raised</p><h4>Here is the correct answer and the original sentence:</h4><p>company,was,raised,and,the</p><p>The company was raised and the officers and non-commissioned officers elected before the meeting adjourned.</p><p style=""font-size:11px;"">(This sentence was scraped from a text from Project Gutenberg.)</p><p style=""font-size:11px;"">Press space to continue.</p>",fixation,499380,,34,html-keyboard-response,,e08884f0-14b4-49da-a491-37b6124ceb38,133f85ab-7d68-4766-a2f8-1bd4c06dd832,,
169,143,condition1,,,False,,,,0.0-5.0-0.15,,,"['for', 'only', 'one', 'vouched', 'by']",,"['vouched', 'for', 'by', 'only', 'one']",,test,520256,3.0,35,cloze,,e08884f0-14b4-49da-a491-37b6124ceb38,133f85ab-7d68-4766-a2f8-1bd4c06dd832,,"vouched,for,by,only,one"
170,143,condition1,,,,,,,0.0-5.0-1.15,32.0,,,1058.9149999432266,,"<h2>Wrong.</h2><h4>Your response was:</h4><p>for,only,one,vouched,by</p><h4>Here is the correct answer and the original sentence:</h4><p>vouched,for,by,only,one</p><p>Now, having said so much of the spirit body, and having indicated that its presence is not vouched for by only one line of evidence or school of thought, let us turn to what happens at the time of death, according to the observation of clairvoyants on this side and the posthumous accounts of the dead upon the other.</p><p style=""font-size:11px;"">(This sentence was scraped from a text from Project Gutenberg.)</p><p style=""font-size:11px;"">Press space to continue.</p>",fixation,521316,,36,html-keyboard-response,,e08884f0-14b4-49da-a491-37b6124ceb38,133f85ab-7d68-4766-a2f8-1bd4c06dd832,,
171,143,condition1,,,False,,,,0.0-5.0-0.16,,,"['stirring', 'together', 'the', 'migrated', 'into']",,"['migrated', 'together', 'into', 'the', 'stirring']",,test,578487,3.0,37,cloze,,e08884f0-14b4-49da-a491-37b6124ceb38,133f85ab-7d68-4766-a2f8-1bd4c06dd832,,"migrated,together,into,the,stirring"
172,143,condition1,,,,,,,0.0-5.0-1.16,32.0,,,876.3199998065829,,"<h2>Wrong.</h2><h4>Your response was:</h4><p>stirring,together,the,migrated,into</p><h4>Here is the correct answer and the original sentence:</h4><p>migrated,together,into,the,stirring</p><p>'What a realisation of something more romantic than a fairy tale it would have been for Mrs. Linton Heathcliff, had she and I struck up an attachment, as her good nurse desired, and migrated together into the stirring atmosphere of the town!</p><p style=""font-size:11px;"">(This sentence was scraped from a text from Project Gutenberg.)</p><p style=""font-size:11px;"">Press space to continue.</p>",fixation,579364,,38,html-keyboard-response,,e08884f0-14b4-49da-a491-37b6124ceb38,133f85ab-7d68-4766-a2f8-1bd4c06dd832,,
173,143,condition1,,,False,,,,0.0-5.0-0.17,,,"['free', 'from', 'irrelevant', 'additions', 'as']",,"['as', 'free', 'from', 'irrelevant', 'additions']",,test,604489,3.0,39,cloze,,e08884f0-14b4-49da-a491-37b6124ceb38,133f85ab-7d68-4766-a2f8-1bd4c06dd832,,"as,free,from,irrelevant,additions"
174,143,condition1,,,,,,,0.0-5.0-1.17,32.0,,,733.2750000059606,,"<h2>Wrong.</h2><h4>Your response was:</h4><p>free,from,irrelevant,additions,as</p><h4>Here is the correct answer and the original sentence:</h4><p>as,free,from,irrelevant,additions</p><p>Philosophy should show us the hierarchy of our instinctive beliefs, beginning with those we hold most strongly, and presenting each as much isolated and as free from irrelevant additions as possible.</p><p style=""font-size:11px;"">(This sentence was scraped from a text from Project Gutenberg.)</p><p style=""font-size:11px;"">Press space to continue.</p>",fixation,605225,,40,html-keyboard-response,,e08884f0-14b4-49da-a491-37b6124ceb38,133f85ab-7d68-4766-a2f8-1bd4c06dd832,,
175,143,condition1,,,False,,,,0.0-5.0-0.18,,,"['to', 'best', 'entitled', 'consideration', 'of']",,"['best', 'entitled', 'to', 'consideration', 'of']",,test,626433,3.0,41,cloze,,e08884f0-14b4-49da-a491-37b6124ceb38,133f85ab-7d68-4766-a2f8-1bd4c06dd832,,"best,entitled,to,consideration,of"
176,143,condition1,,,,,,,0.0-5.0-1.18,32.0,,,1143.6800002120435,,"<h2>Wrong.</h2><h4>Your response was:</h4><p>to,best,entitled,consideration,of</p><h4>Here is the correct answer and the original sentence:</h4><p>best,entitled,to,consideration,of</p><p>They supposed that it would naturally follow the freedom of the negro, but that there would be a time of probation, in which the ex-slaves could prepare themselves for the privileges of citizenship before the full right would be conferred; but Mr. Johnson, after a complete revolution of sentiment, seemed to regard the South not only as an oppressed people, but as the people best entitled to consideration of any of our citizens.</p><p style=""font-size:11px;"">(This sentence was scraped from a text from Project Gutenberg.)</p><p style=""font-size:11px;"">Press space to continue.</p>",fixation,627578,,42,html-keyboard-response,,e08884f0-14b4-49da-a491-37b6124ceb38,133f85ab-7d68-4766-a2f8-1bd4c06dd832,,
177,143,condition1,,,False,,,,0.0-5.0-0.19,,,"['with', 'my', 'right', 'to', 'the']",,"['to', 'the', 'right', 'with', 'my']",,test,654831,3.0,43,cloze,,e08884f0-14b4-49da-a491-37b6124ceb38,133f85ab-7d68-4766-a2f8-1bd4c06dd832,,"to,the,right,with,my"
178,143,condition1,,,,,,,0.0-5.0-1.19,32.0,,,865.5449999496341,,"<h2>Wrong.</h2><h4>Your response was:</h4><p>with,my,right,to,the</p><h4>Here is the correct answer and the original sentence:</h4><p>to,the,right,with,my</p><p>This force, Tuttle's division, not returning I rode to the right with my staff, and soon found that the enemy had left that part of the line.</p><p style=""font-size:11px;"">(This sentence was scraped from a text from Project Gutenberg.)</p><p style=""font-size:11px;"">Press space to continue.</p>",fixation,655697,,44,html-keyboard-response,,e08884f0-14b4-49da-a491-37b6124ceb38,133f85ab-7d68-4766-a2f8-1bd4c06dd832,,
179,143,condition1,,,False,,,,0.0-5.0-0.20,,,"['with', 'me', 'take', 'to', 'school']",,"['school', 'with', 'me', 'to', 'take']",,test,674077,3.0,45,cloze,,e08884f0-14b4-49da-a491-37b6124ceb38,133f85ab-7d68-4766-a2f8-1bd4c06dd832,,"school,with,me,to,take"
180,143,condition1,,,,,,,0.0-5.0-1.20,32.0,,,940.4249996878208,,"<h2>Wrong.</h2><h4>Your response was:</h4><p>with,me,take,to,school</p><h4>Here is the correct answer and the original sentence:</h4><p>school,with,me,to,take</p><p>I want to open a school for little lads--a good, happy, homelike school, with me to take care of them and Fritz to teach them.</p><p style=""font-size:11px;"">(This sentence was scraped from a text from Project Gutenberg.)</p><p style=""font-size:11px;"">Press space to continue.</p>",fixation,675019,,46,html-keyboard-response,,e08884f0-14b4-49da-a491-37b6124ceb38,133f85ab-7d68-4766-a2f8-1bd4c06dd832,,
181,143,condition1,,,False,,,,0.0-5.0-0.21,,,"['script', 'really', 'is', 'a', 'combination']",,"['script', 'is', 'really', 'a', 'combination']",,test,692052,3.0,47,cloze,,e08884f0-14b4-49da-a491-37b6124ceb38,133f85ab-7d68-4766-a2f8-1bd4c06dd832,,"script,is,really,a,combination"
182,143,condition1,,,,,,,0.0-5.0-1.21,32.0,,,823.3550000004469,,"<h2>Wrong.</h2><h4>Your response was:</h4><p>script,really,is,a,combination</p><h4>Here is the correct answer and the original sentence:</h4><p>script,is,really,a,combination</p><p>As the Ogham script is really a combination of straight lines, the latter case may be taken with considerable reserve.</p><p style=""font-size:11px;"">(This sentence was scraped from a text from Project Gutenberg.)</p><p style=""font-size:11px;"">Press space to continue.</p>",fixation,692876,,48,html-keyboard-response,,e08884f0-14b4-49da-a491-37b6124ceb38,133f85ab-7d68-4766-a2f8-1bd4c06dd832,,
183,143,condition1,,,False,,,,0.0-5.0-0.22,,,"['but', 'the', 'general', 'wise', 'as']",,"['but', 'as', 'the', 'wise', 'general']",,test,705174,3.0,49,cloze,,e08884f0-14b4-49da-a491-37b6124ceb38,133f85ab-7d68-4766-a2f8-1bd4c06dd832,,"but,as,the,wise,general"
184,143,condition1,,,,,,,0.0-5.0-1.22,32.0,,,897.6300000213088,,"<h2>Wrong.</h2><h4>Your response was:</h4><p>but,the,general,wise,as</p><h4>Here is the correct answer and the original sentence:</h4><p>but,as,the,wise,general</p><p>But as the wise general chooses the moment of victory in which to redouble his efforts, so that his foes may have no time to steady themselves after disaster, so Boss McGinty, looking out upon the scene of his operations with his brooding and malicious eyes, had devised a new attack upon those who opposed him.</p><p style=""font-size:11px;"">(This sentence was scraped from a text from Project Gutenberg.)</p><p style=""font-size:11px;"">Press space to continue.</p>",fixation,706074,,50,html-keyboard-response,,e08884f0-14b4-49da-a491-37b6124ceb38,133f85ab-7d68-4766-a2f8-1bd4c06dd832,,
185,143,condition1,,,False,,,,0.0-5.0-0.23,,,"['gave', 'up', 'her', 'shadow', 'and']",,"['shadow', 'and', 'gave', 'her', 'up']",,test,717528,3.0,51,cloze,,e08884f0-14b4-49da-a491-37b6124ceb38,133f85ab-7d68-4766-a2f8-1bd4c06dd832,,"shadow,and,gave,her,up"
186,143,condition1,,,,,,,0.0-5.0-1.23,32.0,,,944.320000242442,,"<h2>Wrong.</h2><h4>Your response was:</h4><p>gave,up,her,shadow,and</p><h4>Here is the correct answer and the original sentence:</h4><p>shadow,and,gave,her,up</p><p>So the spring days came and went, the sky grew clearer, the earth greener, the flowers were up fairly early, and the birds came back in time to say goodbye to Beth, who, like a tired but trustful child, clung to the hands that had led her all her life, as Father and Mother guided her tenderly through the Valley of the Shadow, and gave her up to God.</p><p style=""font-size:11px;"">(This sentence was scraped from a text from Project Gutenberg.)</p><p style=""font-size:11px;"">Press space to continue.</p>",fixation,718474,,52,html-keyboard-response,,e08884f0-14b4-49da-a491-37b6124ceb38,133f85ab-7d68-4766-a2f8-1bd4c06dd832,,
187,143,condition1,,,False,,,,0.0-5.0-0.24,,,"['were', 'the', 'image', 'in', 'to']",,"['to', 'the', 'image', 'were', 'in']",,test,741296,3.0,53,cloze,,e08884f0-14b4-49da-a491-37b6124ceb38,133f85ab-7d68-4766-a2f8-1bd4c06dd832,,"to,the,image,were,in"
188,143,condition1,,,,,,,0.0-5.0-1.24,32.0,,,713.8249999843538,,"<h2>Wrong.</h2><h4>Your response was:</h4><p>were,the,image,in,to</p><h4>Here is the correct answer and the original sentence:</h4><p>to,the,image,were,in</p><p>Moreover, we are certainly able to some extent to compare our image with the object remembered, so that we often know, within somewhat wide limits, how far our image is accurate; but this would be impossible, unless the object, as opposed to the image, were in some way before the mind.</p><p style=""font-size:11px;"">(This sentence was scraped from a text from Project Gutenberg.)</p><p style=""font-size:11px;"">Press space to continue.</p>",fixation,742011,,54,html-keyboard-response,,e08884f0-14b4-49da-a491-37b6124ceb38,133f85ab-7d68-4766-a2f8-1bd4c06dd832,,
189,143,condition1,,,False,,,,0.0-5.0-0.25,,,"['insatiable', 'and', 'insatiated', 'love', 'in']",,"['insatiated', 'and', 'insatiable', 'in', 'love']",,test,791719,3.0,55,cloze,,e08884f0-14b4-49da-a491-37b6124ceb38,133f85ab-7d68-4766-a2f8-1bd4c06dd832,,"insatiated,and,insatiable,in,love"
190,143,condition1,,,,,,,0.0-5.0-1.25,32.0,,,3172.105000354349,,"<h2>Wrong.</h2><h4>Your response was:</h4><p>insatiable,and,insatiated,love,in</p><h4>Here is the correct answer and the original sentence:</h4><p>insatiated,and,insatiable,in,love</p><p>Alas, he who knows the heart finds out how poor, helpless, pretentious, and blundering even the best and deepest love is--he finds that it rather DESTROYS than saves!--It is possible that under the holy fable and travesty of the life of Jesus there is hidden one of the most painful cases of the martyrdom of KNOWLEDGE ABOUT LOVE: the martyrdom of the most innocent and most craving heart, that never had enough of any human love, that DEMANDED love, that demanded inexorably and frantically to be loved and nothing else, with terrible outbursts against those who refused him their love; the story of a poor soul insatiated and insatiable in love, that had to invent hell to send thither those who WOULD NOT love him--and that at last, enlightened about human love, had to invent a God who is entire love, entire CAPACITY for love--who takes pity on human love, because it is so paltry, so ignorant!</p><p style=""font-size:11px;"">(This sentence was scraped from a text from Project Gutenberg.)</p><p style=""font-size:11px;"">Press space to continue.</p>",fixation,794892,,56,html-keyboard-response,,e08884f0-14b4-49da-a491-37b6124ceb38,133f85ab-7d68-4766-a2f8-1bd4c06dd832,,
191,143,condition1,,,False,,,,0.0-5.0-0.26,,,"['take', 'my', 'tendering', 'resignation', 'to']",,"['tendering', 'my', 'resignation', 'to', 'take']",,test,831794,3.0,57,cloze,,e08884f0-14b4-49da-a491-37b6124ceb38,133f85ab-7d68-4766-a2f8-1bd4c06dd832,,"tendering,my,resignation,to,take"
192,143,condition1,,,,,,,0.0-5.0-1.26,32.0,,,588.9999996870756,,"<h2>Wrong.</h2><h4>Your response was:</h4><p>take,my,tendering,resignation,to</p><h4>Here is the correct answer and the original sentence:</h4><p>tendering,my,resignation,to,take</p><p>I concluded, therefore, to resign, and in March applied for a leave of absence until the end of the July following, tendering my resignation to take effect at the end of that time.</p><p style=""font-size:11px;"">(This sentence was scraped from a text from Project Gutenberg.)</p><p style=""font-size:11px;"">Press space to continue.</p>",fixation,832384,,58,html-keyboard-response,,e08884f0-14b4-49da-a491-37b6124ceb38,133f85ab-7d68-4766-a2f8-1bd4c06dd832,,
193,143,condition1,,,False,,,,0.0-5.0-0.27,,,"['the', 'essence', 'of', 'concentrated', 'enfolds']",,"['enfolds', 'the', 'concentrated', 'essence', 'of']",,test,855789,3.0,59,cloze,,e08884f0-14b4-49da-a491-37b6124ceb38,133f85ab-7d68-4766-a2f8-1bd4c06dd832,,"enfolds,the,concentrated,essence,of"
194,143,condition1,,,,,,,0.0-5.0-1.27,32.0,,,1081.2149997800586,,"<h2>Wrong.</h2><h4>Your response was:</h4><p>the,essence,of,concentrated,enfolds</p><h4>Here is the correct answer and the original sentence:</h4><p>enfolds,the,concentrated,essence,of</p><p>Each cover of a true book enfolds the concentrated essence of a man.</p><p style=""font-size:11px;"">(This sentence was scraped from a text from Project Gutenberg.)</p><p style=""font-size:11px;"">Press space to continue.</p>",fixation,856872,,60,html-keyboard-response,,e08884f0-14b4-49da-a491-37b6124ceb38,133f85ab-7d68-4766-a2f8-1bd4c06dd832,,
195,143,condition1,,,False,,,,0.0-5.0-0.28,,,"['and', 'all', 'looking', 'sat', 'at']",,"['and', 'all', 'sat', 'looking', 'at']",,test,872653,3.0,61,cloze,,e08884f0-14b4-49da-a491-37b6124ceb38,133f85ab-7d68-4766-a2f8-1bd4c06dd832,,"and,all,sat,looking,at"
196,143,condition1,,,,,,,0.0-5.0-1.28,32.0,,,830.7699998840691,,"<h2>Wrong.</h2><h4>Your response was:</h4><p>and,all,looking,sat,at</p><h4>Here is the correct answer and the original sentence:</h4><p>and,all,sat,looking,at</p><p>Presently Beth and Amy woke to rummage and find their little books also, one dove-colored, the other blue, and all sat looking at and talking about them, while the east grew rosy with the coming day.</p><p style=""font-size:11px;"">(This sentence was scraped from a text from Project Gutenberg.)</p><p style=""font-size:11px;"">Press space to continue.</p>",fixation,873485,,62,html-keyboard-response,,e08884f0-14b4-49da-a491-37b6124ceb38,133f85ab-7d68-4766-a2f8-1bd4c06dd832,,
197,143,condition1,,,False,,,,0.0-5.0-0.29,,,"['she', 'then', 'emerged', 'from', 'her']",,"['then', 'she', 'emerged', 'from', 'her']",,test,885883,3.0,63,cloze,,e08884f0-14b4-49da-a491-37b6124ceb38,133f85ab-7d68-4766-a2f8-1bd4c06dd832,,"then,she,emerged,from,her"
